# auto-battlebot velocity jig
# columns: t_us,count,gx,gy,gz,ax,ay,az  (raw int16 imu)
# encoder: quadrature x4 (constant column if unplugged)
# sample_rate_hz=1000 gyro_dps_per_lsb=0.070 accel_g_per_lsb=0.000244
486673455,0,36,-59,-1,-479,3,-3733
486674450,0,22,-18,-8,-317,-194,-3858
486675452,0,6,-9,-2,16,-181,-3968
486676450,0,8,-5,-1,163,-104,-4060
486677450,0,3,-11,-3,8,88,-4243
486678450,0,15,-24,-5,-5,81,-4098
486679450,0,13,-23,-11,-13,14,-4002
486680450,0,10,-18,-12,14,41,-4019
486681450,0,6,-21,-12,18,81,-4065
486682450,0,12,-27,-12,-27,33,-4086
486683450,0,13,-20,-15,-81,-24,-4041
486684450,0,14,-17,-5,-41,-53,-4030
486685450,0,6,-15,-6,2,-52,-4038
486686450,0,6,-18,-8,64,16,-4057
486687450,0,10,-18,-4,46,74,-4099
486688450,0,8,-17,-5,10,49,-4100
486689450,0,10,-18,-5,-26,-32,-4057
486690450,0,6,-16,-5,-51,-71,-4046
486691450,0,-3,-9,-7,-82,-158,-4028
486692450,0,-8,-6,-2,-220,-155,-3949
486693450,0,-10,8,-9,-150,31,-4109
486694450,0,0,11,-3,115,55,-4227
486695450,0,21,-60,-6,875,342,-5038
486696450,0,-12,-32,-10,-615,-83,-2954
486697450,0,4,-3,-11,-621,-63,-4227
486698450,0,-7,20,-3,90,7,-3904
486699450,0,-16,16,2,204,-19,-4239
486700450,0,10,-22,-10,245,49,-4421
486701450,0,4,-23,-5,-90,74,-4066
486702450,0,10,-14,-8,-248,-24,-4060
486703450,0,6,-1,-1,38,-51,-3943
486704450,0,-9,11,3,32,-44,-4025
486705450,0,0,-12,-5,93,92,-4205
486706466,0,7,-16,-10,-22,70,-4148
486707450,0,7,-9,-10,-136,-12,-4078
486708450,0,1,-9,-6,-116,-11,-4017
486709450,0,-1,5,-7,-38,-39,-4008
486710450,0,-3,-3,-5,60,37,-4086
486711450,0,1,-5,-6,60,122,-4129
486712450,0,2,-15,-10,-16,108,-4111
486713450,0,7,-6,-6,-54,87,-4078
486714450,0,4,-3,-11,-57,2,-4017
486715450,0,2,-3,-9,-1,-5,-4057
486716450,0,6,-4,-4,9,44,-4089
486717450,0,-1,-2,-1,17,61,-4093
486718450,0,-1,-7,-4,-21,59,-4113
486719450,0,2,-2,-4,-47,32,-4081
486720450,0,3,-4,-5,-28,18,-4067
486721450,0,7,-6,-7,-11,34,-4076
486722450,0,2,-3,-7,-24,41,-4087
486723450,0,4,-7,-10,-26,33,-4085
486724450,0,5,-7,-6,-35,25,-4081
486725450,0,8,0,-6,-15,12,-4069
486726450,0,1,-4,-8,-4,8,-4066
486727450,0,1,-2,-7,-17,28,-4065
486728450,0,4,-3,-7,-25,34,-4070
486729450,0,3,-4,-5,-10,28,-4106
486730450,0,9,-7,-4,-15,8,-4099
486731450,0,6,3,-3,-2,-3,-4095
486732450,0,9,-9,-11,-25,-14,-4081
486733450,0,4,-9,-11,-33,-5,-4075
486734450,0,5,-5,-8,-14,-8,-4078
486735450,0,5,1,-6,-19,-9,-4105
486736450,0,5,-2,-9,-8,2,-4115
486737450,0,11,-11,-11,0,-14,-4091
486738450,0,8,-6,-14,-12,-22,-4080
486739450,0,4,-6,-11,-23,-18,-4095
486740450,0,7,1,-9,-30,-19,-4087
486741450,0,-2,2,-8,-14,-14,-4078
486742450,0,2,-5,-6,-21,-3,-4098
486743450,0,-2,-7,-6,5,-21,-4087
486744450,0,1,-1,-7,-13,-12,-4085
486745450,0,6,-8,-8,-23,-28,-4097
486746450,0,4,-6,-3,-8,-6,-4098
486747450,0,6,-5,-7,-2,-17,-4093
486748450,0,-1,-7,-5,-4,-6,-4098
486749450,0,-2,-5,-6,3,1,-4105
486750450,0,5,-5,-7,-12,-12,-4113
486751450,0,7,-4,-7,-11,-20,-4108
486752450,0,8,-8,-8,6,13,-4094
486753450,0,4,-11,-11,-3,30,-4100
486754450,0,2,-6,-5,-12,25,-4102
486755450,0,5,-4,-6,-21,14,-4088
486756450,0,4,-5,-7,2,24,-4087
486757450,0,2,-7,-6,-24,21,-4091
486758450,0,3,-3,-1,-25,14,-4108
486759450,0,6,-1,-7,-39,15,-4097
486760450,0,4,-3,-5,-13,37,-4102
486761450,0,6,-5,-6,-19,34,-4090
486762450,0,3,-3,-1,-14,35,-4099
486763450,0,6,-5,-5,-21,36,-4090
486764450,0,7,-5,-4,-23,32,-4072
486765450,0,4,-2,-5,-8,38,-4090
486766450,0,8,-7,-5,-12,21,-4088
486767450,0,0,-3,-2,-22,21,-4074
486768450,0,0,2,-7,-17,33,-4080
486769450,0,9,-9,-5,-6,24,-4097
486770450,0,3,-5,-8,-18,43,-4093
486771450,0,3,-6,-9,-10,29,-4084
486772450,0,9,-4,-5,-15,26,-4089
486773450,0,6,-2,-7,-15,25,-4078
486774450,0,7,-3,-7,-10,7,-4092
486775450,0,8,-5,-6,-10,2,-4074
486776450,0,5,-5,-11,-1,15,-4082
486777450,0,6,-4,-4,-7,17,-4082
486778450,0,11,2,-10,-12,4,-4082
486779450,0,5,1,-9,-12,-3,-4082
486780450,0,6,-5,-9,-9,-6,-4088
486781450,0,-1,1,-9,-17,6,-4101
486782450,0,5,-4,-7,-13,-4,-4099
486783450,0,6,-6,-8,-15,5,-4092
486784450,0,3,-2,-6,-14,1,-4073
486785450,0,9,-3,-6,-8,3,-4093
486786450,0,3,4,2,-1,-5,-4093
486787450,0,6,-3,-4,-12,11,-4086
486788450,0,2,-5,-8,-15,2,-4092
486789450,0,6,-4,-3,-16,-11,-4085
486790450,0,5,-5,-7,-10,-8,-4087
486791450,0,6,-3,-7,-8,0,-4102
486792450,0,-3,-4,-6,-36,-10,-4095
486793450,0,4,-10,-6,-14,5,-4091
486794450,0,5,-9,-3,-11,7,-4091
486795450,0,5,-2,-8,-13,-6,-4075
486796450,0,5,-7,-7,-5,6,-4104
486797450,0,1,-5,-4,-12,4,-4090
486798450,0,4,-7,-4,-7,6,-4072
486799450,0,5,-7,-6,-20,-2,-4093
486800450,0,6,-5,-4,-6,11,-4084
486801450,0,7,-7,-7,2,3,-4077
486802450,0,-3,-1,-6,-12,18,-4085
486803450,0,2,-9,-6,-22,-2,-4094
486804450,0,4,-2,-5,-9,17,-4084
486805450,0,6,-7,-7,-9,9,-4086
486806450,0,12,-7,-5,-18,8,-4098
486807450,0,6,-11,-9,-18,14,-4086
486808450,0,8,-5,-11,-26,26,-4096
486809450,0,1,-5,-5,-25,16,-4100
486810450,0,1,-11,-5,-16,12,-4083
486811450,0,1,-8,-5,-20,14,-4096
486812450,0,4,2,-10,-17,15,-4091
486813450,0,-2,-2,-6,-15,16,-4090
486814450,0,1,-13,-7,-8,8,-4075
486815450,0,0,3,-4,-3,20,-4078
486816450,0,4,-5,-5,-11,33,-4097
486817450,0,5,-7,-4,-11,19,-4075
486818450,0,4,-4,-5,-25,15,-4087
486819450,0,9,-7,-8,-15,26,-4092
486820450,0,-1,-4,-3,-27,11,-4097
486821450,0,6,-8,-9,-19,22,-4077
486822450,0,3,-5,-8,-18,18,-4093
486823450,0,0,-3,-7,-20,19,-4084
486824450,0,8,-1,-7,-27,0,-4084
486825450,0,7,-5,-5,-27,3,-4097
486826450,0,7,-4,-4,-16,14,-4074
486827450,0,3,-1,-3,-9,14,-4077
486828450,0,5,-4,-7,-20,4,-4084
486829450,0,6,1,-5,-7,5,-4097
486830450,0,7,-8,-5,-27,-8,-4077
486831450,0,3,-5,-10,6,10,-4097
486832450,0,1,0,-3,-4,13,-4089
486833450,0,1,-7,-9,-23,1,-4091
486834450,0,0,-4,-5,12,-2,-4097
486835450,0,6,-6,-6,-8,-1,-4092
486836450,0,1,1,-6,-12,-5,-4088
486837450,0,8,-5,-1,-7,8,-4085
486838450,0,6,-3,-4,-9,0,-4082
486839450,0,2,-4,-4,-8,-8,-4076
486840450,0,1,-3,-7,-22,-3,-4086
486841450,0,6,-10,-10,-18,7,-4102
486842450,0,7,0,-5,-20,11,-4088
486843450,0,2,-9,-8,-14,-2,-4094
486844450,0,2,-5,-4,-21,6,-4087
486845450,0,4,0,-7,-13,3,-4094
486846450,0,1,-8,-3,-16,9,-4085
486847450,0,3,-1,-6,-14,16,-4086
486848450,0,4,-7,-9,1,8,-4071
486849450,0,6,-2,-4,-19,-1,-4076
486850450,0,8,-2,-6,3,2,-4074
486851450,0,9,-4,-9,-23,13,-4096
486852450,0,8,-5,-15,-5,23,-4090
486853450,0,5,0,-10,-16,15,-4092
486854450,0,5,-1,-5,-7,8,-4100
486855450,0,1,-11,-8,-6,8,-4099
486856450,0,1,-3,-8,-17,-2,-4089
486857450,0,3,-7,-8,-21,19,-4105
486858450,0,-2,-7,-7,-11,4,-4101
486859450,0,6,-4,-5,-13,7,-4114
486860450,0,6,-6,-3,-31,9,-4098
486861450,0,5,-5,-11,-2,17,-4096
486862450,0,4,-11,-11,-19,10,-4094
486863450,0,2,-5,-5,-16,12,-4089
486864450,0,6,-2,-6,-16,18,-4084
486865450,0,10,-6,-8,-10,24,-4088
486866450,0,3,1,-4,-24,20,-4091
486867450,0,9,-9,-9,-10,4,-4100
486868450,0,-1,-6,-3,-29,-6,-4101
486869450,0,3,-4,-9,-13,20,-4107
486870450,0,2,-3,-6,0,9,-4083
486871450,0,4,-2,-12,-12,6,-4083
486872450,0,6,-7,-9,-14,2,-4083
486873450,0,3,-6,-9,-7,1,-4080
486874450,0,5,1,-7,-18,14,-4079
486875450,0,7,-6,-5,-22,13,-4090
486876450,0,7,-8,-4,-5,7,-4077
486877450,0,4,1,-1,-10,6,-4080
486878450,0,3,-8,-8,-9,-1,-4082
486879450,0,5,-7,-6,-11,3,-4079
486880450,0,7,-8,-13,-22,8,-4089
486881450,0,6,-5,-6,-12,7,-4083
486882450,0,3,-4,-12,-16,-7,-4099
486883450,0,9,-6,-10,-33,-2,-4085
486884450,0,7,-8,-9,-4,6,-4090
486885450,0,7,-5,-9,-13,24,-4104
486886450,0,4,1,-3,-15,11,-4084
486887450,0,3,2,-2,-18,9,-4092
486888450,0,0,-5,-7,-16,-1,-4075
486889450,0,8,-5,-9,-25,10,-4085
486890450,0,0,-6,-9,-18,6,-4078
486891450,0,1,-8,-3,-13,7,-4085
486892450,0,6,-4,-4,-15,6,-4084
486893450,0,0,-3,-8,-11,3,-4092
486894450,0,11,-6,-10,-5,13,-4097
486895450,0,3,-2,-7,-7,17,-4085
486896450,0,8,-5,-7,-14,14,-4090
486897450,0,0,-6,-4,-11,0,-4077
486898450,0,3,0,-7,-16,8,-4084
486899450,0,0,-2,-7,-13,6,-4097
486900450,0,6,-1,-5,-10,11,-4094
486901450,0,7,-4,-9,-1,19,-4099
486902450,0,12,-12,-8,-35,9,-4093
486903450,0,1,-5,-3,-14,12,-4097
486904450,0,1,-2,-6,-23,14,-4097
486905450,0,1,-6,-6,-12,20,-4089
486906450,0,-2,-2,-4,-11,3,-4086
486907450,0,0,-6,-1,-10,16,-4107
486908450,0,2,-6,-6,-34,14,-4099
486909450,0,6,-6,-6,-24,15,-4111
486910450,0,4,-5,-6,-13,5,-4095
486911450,0,6,-5,-6,-20,32,-4099
486912450,0,9,-1,-10,-28,12,-4106
486913450,0,3,-3,-5,-25,4,-4086
486914450,0,3,-4,-10,-15,1,-4078
486915450,0,8,-6,-6,-10,24,-4088
486916450,0,5,-6,-9,-21,5,-4092
486917450,0,7,-3,-11,-22,5,-4075
486918450,0,6,2,-2,-24,6,-4096
486919450,0,5,1,-4,-3,13,-4092
486920450,0,5,-8,-3,-8,8,-4088
486921450,0,8,-7,-9,-17,2,-4110
486922450,0,5,-5,-10,-2,10,-4091
486923450,0,1,-7,-6,-10,11,-4101
486924450,0,8,-4,-3,-11,6,-4083
486925450,0,6,-1,-3,-10,-8,-4071
486926450,0,9,-3,-7,-11,4,-4093
486927450,0,5,-2,-9,-16,9,-4098
486928450,0,8,-2,-3,-28,3,-4079
486929450,0,7,-7,-6,-17,0,-4088
486930450,0,4,-1,-5,-9,2,-4085
486931450,0,5,-5,-4,-12,2,-4102
486932450,0,3,1,-3,-6,11,-4097
486933450,0,0,-9,-12,-8,10,-4094
486934450,0,3,-7,-7,1,6,-4085
486935450,0,5,0,-9,-14,17,-4098
486936450,0,6,-4,-10,5,9,-4078
486937450,0,4,-3,-10,-22,-10,-4088
486938450,0,1,0,-8,-11,3,-4082
486939450,0,7,-4,-8,-6,8,-4085
486940450,0,2,2,-6,-5,-8,-4087
486941450,0,2,-4,-7,-32,-10,-4065
486942450,0,8,-8,-7,-4,17,-4087
486943450,0,0,-2,-6,-8,12,-4084
486944450,0,6,-4,-1,-24,6,-4104
486945450,0,3,-2,-7,-8,8,-4084
486946450,0,0,2,-6,-7,8,-4089
486947450,0,9,-4,-8,-7,9,-4092
486948450,0,3,-1,-8,-7,31,-4090
486949450,0,6,3,-5,-17,7,-4080
486950450,0,5,-7,-9,-17,4,-4103
486951450,0,3,-6,-3,-5,9,-4110
486952450,0,5,-7,-4,-9,10,-4110
486953450,0,0,-4,-7,-18,14,-4088
486954450,0,8,-3,-12,-11,10,-4080
486955450,0,3,-6,-10,-6,4,-4107
486956450,0,5,1,-5,-20,16,-4086
486957450,0,4,-4,-4,-25,9,-4096
486958450,0,4,-3,-7,-13,19,-4097
486959450,0,6,-4,-6,-16,12,-4091
486960450,0,4,-1,-7,-18,9,-4097
486961450,0,7,-3,-10,-26,14,-4103
486962450,0,2,-2,-2,-23,3,-4086
486963450,0,5,-3,-11,-23,10,-4096
486964450,0,1,4,-14,-16,15,-4077
486965450,0,5,-7,-7,-11,6,-4116
486966450,0,5,-4,-10,-11,-3,-4077
486967450,0,1,4,-3,-8,7,-4085
486968450,0,6,-3,-4,6,13,-4086
486969450,0,-1,-5,-7,-5,12,-4099
486970450,0,2,-3,-9,-7,4,-4094
486971450,0,1,-4,-8,2,2,-4081
486972450,0,5,0,-4,-27,1,-4096
486973450,0,7,-6,-5,-10,2,-4103
486974450,0,8,-9,-6,-10,6,-4094
486975450,0,8,3,-6,-10,6,-4087
486976450,0,-1,-6,-8,-15,-1,-4091
486977450,0,3,-6,-5,-17,14,-4096
486978450,0,4,3,-9,-11,16,-4085
486979450,0,5,-8,-11,-11,1,-4083
486980450,0,5,-2,-6,-15,1,-4090
486981450,0,2,-6,-9,-15,6,-4089
486982450,0,0,-6,-1,10,25,-4097
486983450,0,1,-1,-5,-15,6,-4084
486984450,0,7,-10,-8,-19,4,-4091
486985450,0,3,-7,-5,-15,18,-4091
486986450,0,2,-3,-10,-8,13,-4095
486987450,0,6,-3,-4,4,12,-4099
486988450,0,1,-1,-7,-19,3,-4075
486989450,0,2,-6,-3,-19,6,-4077
486990450,0,1,-1,-6,-31,12,-4086
486991450,0,4,-3,-6,-14,15,-4089
486992450,0,0,-1,-11,-12,7,-4077
486993450,0,1,-5,-7,-26,14,-4094
486994450,0,4,-4,-6,-6,9,-4082
486995450,0,3,-3,-7,-25,10,-4089
486996450,0,6,1,-8,-24,8,-4088
486997450,0,7,-5,-10,-19,13,-4079
486998450,0,8,-9,-8,-12,7,-4087
486999450,0,2,-3,-8,-9,18,-4085
487000450,0,7,-9,-8,-4,21,-4084
487001450,0,7,-5,-5,-3,19,-4095
487002450,0,-1,-5,-8,-14,15,-4077
487003450,0,2,-3,-5,-19,20,-4094
487004450,0,6,-3,-9,-14,5,-4088
487005450,0,9,-6,-8,-5,6,-4090
487006450,0,1,-5,-4,-22,9,-4094
487007450,0,4,-2,-5,-18,0,-4089
487008450,0,4,-6,-6,-32,12,-4077
487009450,0,9,-7,-6,-15,12,-4085
487010450,0,4,-2,-9,-15,15,-4095
487011450,0,10,-8,-11,-16,20,-4100
487012450,0,11,-4,-5,-16,3,-4089
487013450,0,6,-5,-8,-26,0,-4086
487014450,0,2,-6,-5,-30,9,-4088
487015450,0,1,2,-10,-19,12,-4090
487016450,0,8,-9,-9,-12,13,-4082
487017450,0,5,-3,-4,-24,9,-4088
487018450,0,7,-6,-9,-5,15,-4093
487019450,0,9,3,-9,-10,2,-4110
487020450,0,4,-3,-6,-10,15,-4099
487021450,0,2,-1,-3,-22,4,-4109
487022450,0,11,-8,-10,-15,7,-4100
487023450,0,-1,-6,-3,-30,11,-4106
487024450,0,6,-4,-4,-19,14,-4108
487025450,0,8,-1,-6,-29,5,-4109
487026450,0,10,-8,-11,-14,-1,-4095
487027450,0,2,-4,-8,-6,3,-4089
487028450,0,4,-2,-6,-7,10,-4089
487029450,0,3,0,-3,-23,-4,-4087
487030450,0,4,-1,-9,-2,5,-4092
487031450,0,2,-2,-7,-4,6,-4082
487032450,0,8,-6,-8,-9,1,-4092
487033450,0,-3,1,-10,8,10,-4093
487034450,0,2,-5,-6,-7,12,-4093
487035450,0,9,-8,-5,-8,6,-4092
487036450,0,2,-5,-7,-14,1,-4084
487037450,0,7,1,-5,-16,0,-4085
487038450,0,7,-8,-6,1,-5,-4088
487039450,0,4,-3,-9,-22,14,-4093
487040450,0,5,-6,-7,-17,6,-4063
487041450,0,6,-2,-6,-16,18,-4093
487042450,0,10,-10,-9,-28,1,-4087
487043450,0,2,-8,-10,-7,15,-4086
487044450,0,8,-6,-9,-9,6,-4087
487045450,0,2,-1,-7,-17,14,-4088
487046450,0,10,-6,-7,-31,16,-4078
487047450,0,0,4,-5,-24,27,-4070
487048450,0,6,-6,-9,-4,20,-4076
487049450,0,5,-3,-8,-23,17,-4089
487050450,0,1,-4,-5,-6,3,-4095
487051450,0,5,-10,-8,-24,9,-4097
487052450,0,8,-2,-5,-19,27,-4096
487053450,0,6,-3,-4,-7,21,-4090
487054450,0,1,-1,-2,-15,4,-4089
487055450,0,3,-2,-3,-5,10,-4072
487056450,0,6,-6,-3,4,0,-4070
487057450,0,4,-7,-10,-28,14,-4085
487058450,0,3,-3,-7,-19,12,-4087
487059450,0,3,-1,-6,-2,26,-4093
487060450,0,0,0,-11,-11,7,-4089
487061450,0,1,-7,-11,-16,18,-4100
487062450,0,4,-9,-7,-5,-6,-4101
487063450,0,3,-4,-8,-12,1,-4090
487064450,0,8,-3,-7,-25,-7,-4084
487065450,0,3,-4,-9,-17,12,-4106
487066450,0,10,0,-9,-5,13,-4098
487067450,0,8,0,-5,-24,17,-4085
487068450,0,6,1,-7,-20,10,-4094
487069450,0,-4,-1,-6,-11,5,-4100
487070450,0,7,-7,-3,-1,20,-4081
487071450,0,6,-2,-11,-25,1,-4081
487072450,0,10,-6,-7,-6,3,-4091
487073450,0,5,-7,-6,-11,10,-4080
487074450,0,5,-4,-5,-7,6,-4088
487075450,0,8,-6,-9,-15,8,-4091
487076450,0,-1,-2,-3,-18,17,-4094
487077450,0,10,-2,-9,-27,4,-4084
487078450,0,2,-2,-8,-21,10,-4102
487079450,0,3,-1,-2,-20,13,-4086
487080450,0,7,-7,-3,-7,16,-4089
487081450,0,5,-3,-8,-12,11,-4098
487082450,0,-1,-5,-7,-23,0,-4087
487083450,0,4,-9,-8,-13,-3,-4079
487084450,0,8,-4,-12,-7,10,-4076
487085450,0,8,-8,-7,-7,21,-4088
487086450,0,-1,-3,-6,-10,-3,-4107
487087450,0,5,-4,-11,-14,1,-4098
487088450,0,5,0,-5,-24,8,-4082
487089450,0,7,3,-9,-14,12,-4103
487090450,0,3,-8,-7,7,4,-4096
487091450,0,7,-3,-9,-29,1,-4100
487092450,0,2,-3,-7,-19,-6,-4084
487093450,0,5,-4,-4,-19,2,-4084
487094450,0,3,-6,-5,-4,19,-4077
487095450,0,0,-5,-8,-18,19,-4080
487096450,0,5,-5,-4,-9,4,-4093
487097450,0,7,-7,-6,-8,-10,-4087
487098450,0,6,-8,-6,-18,20,-4081
487099450,0,4,-9,-5,-11,-4,-4076
487100450,0,4,-3,-3,-12,11,-4076
487101450,0,4,-4,-4,-16,0,-4078
487102450,0,1,-2,-2,-8,19,-4098
487103450,0,2,0,-4,-20,6,-4085
487104450,0,12,-7,-8,-22,10,-4095
487105450,0,5,-4,-4,-11,10,-4091
487106450,0,6,-4,-6,-18,14,-4095
487107450,0,7,-7,-6,-9,19,-4098
487108450,0,3,-1,-4,-8,23,-4104
487109450,0,6,-5,-9,-23,-1,-4103
487110450,0,5,-4,-9,-1,9,-4095
487111450,0,0,0,-6,-14,10,-4088
487112450,0,5,-8,-10,-8,19,-4078
487113450,0,-1,-2,-10,-27,-2,-4093
487114450,0,4,-5,-7,-16,20,-4079
487115450,0,3,0,-5,-16,5,-4093
487116450,0,4,-5,-4,-16,17,-4086
487117450,0,8,-9,-7,-5,12,-4099
487118450,0,3,-6,-8,-7,11,-4098
487119450,0,3,-4,-7,-27,13,-4092
487120450,0,8,-5,-4,-15,3,-4092
487121450,0,5,-4,-4,-11,11,-4090
487122450,0,8,-6,-7,-12,20,-4094
487123450,0,4,-8,-8,-13,6,-4100
487124450,0,0,0,-5,-6,9,-4101
487125450,0,3,-3,-13,-3,13,-4088
487126450,0,7,-6,-3,-14,1,-4082
487127450,0,3,-5,-7,1,6,-4090
487128450,0,7,-12,-5,1,7,-4086
487129450,0,5,3,-5,-28,11,-4082
487130450,0,7,-2,-5,-19,20,-4095
487131450,0,3,-3,-5,-12,8,-4090
487132450,0,-1,-3,-3,-15,3,-4093
487133450,0,2,-6,-9,-14,2,-4088
487134450,0,7,-4,-5,-13,4,-4101
487135450,0,4,-7,-8,-7,13,-4087
487136450,0,5,-8,-3,-12,13,-4096
487137450,0,-1,-2,-3,-9,12,-4082
487138450,0,7,-4,-11,-36,19,-4090
487139450,0,8,-9,-9,-7,7,-4079
487140450,0,-2,0,-12,-10,2,-4099
487141450,0,4,-9,-10,-22,-6,-4083
487142450,0,5,-3,-6,-31,10,-4105
487143450,0,3,0,-7,-14,17,-4094
487144450,0,8,-9,-12,-14,11,-4100
487145450,0,3,-4,-6,-11,11,-4082
487146450,0,3,-1,-4,-33,5,-4088
487147450,0,3,-2,-8,-28,10,-4071
487148450,0,4,-6,-10,-25,6,-4090
487149450,0,6,-5,-1,-7,0,-4100
487150450,0,1,-4,-9,-13,10,-4084
487151450,0,5,-1,-7,-10,17,-4101
487152450,0,8,-5,-3,-11,5,-4075
487153450,0,4,-5,-1,-9,8,-4079
487154450,0,2,-1,-7,-24,13,-4067
487155450,0,3,-6,-5,0,3,-4077
487156450,0,1,-3,-5,-12,27,-4097
487157450,0,6,-4,-5,-5,17,-4100
487158450,0,4,0,-10,0,0,-4087
487159450,0,9,-5,-6,-12,6,-4090
487160450,0,2,-7,-5,-39,17,-4083
487161450,0,7,-3,-9,-3,6,-4073
487162450,0,10,-10,-11,-14,7,-4076
487163450,0,2,-2,-9,-25,24,-4099
487164450,0,-1,0,-6,-11,1,-4083
487165450,0,9,-7,-9,-5,13,-4103
487166450,0,8,-6,-12,-22,2,-4089
487167450,0,5,-2,-5,-21,20,-4094
487168450,0,4,-3,-2,-22,8,-4076
487169450,0,10,-2,-6,-23,5,-4092
487170450,0,5,0,-4,-9,-5,-4093
487171450,0,11,-5,-4,-19,-6,-4101
487172450,0,6,-1,-8,-12,13,-4094
487173450,0,6,-3,-9,-1,8,-4089
487174450,0,6,-3,-10,0,18,-4106
487175450,0,5,-2,-9,-28,3,-4082
487176450,0,6,-11,-5,-13,7,-4086
487177450,0,3,-2,-9,-5,9,-4079
487178450,0,4,-5,-7,-14,-1,-4090
487179450,0,4,-2,-1,-21,8,-4087
487180450,0,2,2,-5,-24,13,-4106
487181450,0,9,-4,-9,-13,6,-4099
487182450,0,3,-4,-7,-13,0,-4101
487183450,0,6,-4,-9,-17,15,-4098
487184450,0,3,-7,-9,-15,5,-4100
487185450,0,-1,-2,-7,-10,3,-4088
487186450,0,3,1,-5,-23,5,-4089
487187450,0,3,-5,-8,-14,12,-4091
487188450,0,-2,-1,-6,-3,2,-4096
487189450,0,5,-6,-7,-13,4,-4089
487190450,0,6,0,-5,-31,14,-4083
487191450,0,5,-6,-9,0,8,-4094
487192450,0,5,-12,-9,-12,2,-4093
487193450,0,2,1,-9,-28,2,-4085
487194450,0,3,-5,-14,-5,6,-4083
487195450,0,5,-6,-8,-6,8,-4091
487196450,0,4,-2,-7,-26,8,-4090
487197450,0,0,-7,-6,-19,5,-4101
487198450,0,3,-7,-8,-13,15,-4091
487199450,0,7,1,-7,-5,16,-4098
487200450,0,10,-2,-7,-17,5,-4074
487201450,0,4,-5,-7,-14,17,-4077
487202450,0,2,-3,-9,-16,11,-4082
487203450,0,7,-5,-3,-12,14,-4086
487204450,0,1,-3,-6,-14,4,-4072
487205450,0,7,-9,-7,-17,17,-4073
487206450,0,2,3,-4,-6,14,-4088
487207450,0,3,-1,-4,-11,8,-4086
487208450,0,2,-2,-7,-10,4,-4081
487209450,0,0,-1,-6,-14,12,-4075
487210450,0,8,-7,-10,-13,6,-4086
487211450,0,9,-2,-9,-11,7,-4075
487212450,0,6,-1,-6,-26,5,-4097
487213450,0,7,-9,-10,-9,12,-4092
487214450,0,4,-2,-4,-9,11,-4099
487215450,0,5,-4,-6,-27,23,-4098
487216450,0,6,1,-8,-18,10,-4083
487217450,0,3,-1,-4,-22,12,-4086
487218451,0,1,-2,-6,-6,5,-4082
487219452,0,0,-4,-9,-20,-2,-4108
487220450,0,2,-1,-6,-11,3,-4089
487221450,0,8,-9,-6,-20,20,-4100
487222450,0,3,-1,-5,-22,19,-4095
487223450,0,2,-3,-5,-17,11,-4086
487224450,0,2,-2,-2,-6,2,-4083
487225450,0,-1,2,-7,-2,12,-4102
487226450,0,9,-6,-5,-19,7,-4083
487227450,0,2,-4,-7,-7,8,-4095
487228450,0,7,-7,-8,-17,27,-4088
487229450,0,9,-1,-2,-27,4,-4086
487230450,0,-1,0,-8,-19,13,-4091
487231450,0,7,-4,-7,-16,17,-4095
487232450,0,7,-5,-4,-12,7,-4089
487233450,0,0,0,-11,-24,12,-4100
487234450,0,6,-7,-10,-15,11,-4104
487235450,0,4,-5,-8,-12,-5,-4105
487236450,0,2,0,-9,-8,6,-4087
487237450,0,5,-1,-9,-10,-5,-4093
487238450,0,1,0,-11,-4,13,-4095
487239450,0,1,2,-7,-5,14,-4080
487240450,0,1,-4,-5,-9,-4,-4090
487241450,0,1,1,-7,-18,-3,-4097
487242450,0,8,-5,-8,-2,-2,-4088
487243450,0,9,-1,-5,-9,-2,-4094
487244450,0,8,-6,-5,-5,15,-4090
487245450,0,6,-8,-9,-25,10,-4094
487246450,0,2,1,-4,-30,0,-4088
487247450,0,7,-1,-8,-13,11,-4095
487248450,0,5,-6,-5,-7,5,-4092
487249450,0,4,-6,-10,-12,18,-4096
487250450,0,7,-3,-7,-16,17,-4092
487251450,0,0,-2,-7,-13,5,-4081
487252450,0,5,-7,-7,-5,4,-4066
487253450,0,6,-8,-10,-3,11,-4085
487254450,0,1,-1,-9,-9,7,-4079
487255450,0,4,-3,-7,-16,13,-4089
487256450,0,9,-7,-7,-2,5,-4082
487257450,0,3,3,-3,-12,11,-4088
487258450,0,3,-6,-13,-13,11,-4083
487259450,0,3,-6,-7,-9,14,-4084
487260450,0,5,-10,-6,-7,9,-4084
487261450,0,6,-2,-5,-8,-10,-4062
487262450,0,-3,-2,-1,-6,16,-4077
487263450,0,3,-1,-3,-15,13,-4083
487264450,0,5,-5,-10,-19,9,-4082
487265450,0,4,-5,-1,-11,7,-4086
487266450,0,1,-7,-5,-15,5,-4086
487267450,0,9,-5,-5,-10,0,-4087
487268450,0,4,-3,-10,-1,1,-4103
487269450,0,6,-4,-7,-21,16,-4092
487270450,0,9,-4,-4,-10,3,-4096
487271450,0,4,-4,-9,-11,2,-4104
487272450,0,9,-1,1,-14,12,-4097
487273450,0,5,-3,-7,-13,9,-4096
487274450,0,4,-6,-1,-18,7,-4089
487275450,0,-1,-1,-1,-19,4,-4079
487276450,0,6,-6,-9,-22,12,-4096
487277450,0,3,-4,-8,-17,2,-4077
487278450,0,6,-2,-6,-19,11,-4092
487279450,0,5,-5,-11,-14,7,-4100
487280450,0,0,-2,-11,1,-3,-4089
487281450,0,5,-8,-5,-13,24,-4083
487282450,0,4,-5,-13,-9,8,-4087
487283450,0,7,-7,-10,-10,1,-4098
487284450,0,3,-4,-10,-14,-2,-4091
487285450,0,8,-9,-5,-20,6,-4093
487286450,0,7,-10,-4,3,10,-4103
487287450,0,3,-6,-10,-8,5,-4121
487288450,0,6,-9,-8,-13,6,-4104
487289450,0,-1,1,-2,-14,1,-4094
487290450,0,2,-8,-2,-21,9,-4089
487291450,0,10,-2,-2,-17,7,-4086
487292450,0,2,-5,-7,-21,8,-4097
487293450,0,8,-6,-5,1,1,-4099
487294450,0,4,0,-3,-21,0,-4094
487295450,0,7,-9,-8,-20,0,-4097
487296450,0,5,-4,-11,-25,0,-4071
487297450,0,5,-5,-12,-16,8,-4102
487298450,0,-1,-6,-12,-22,20,-4080
487299450,0,8,-5,-9,2,14,-4101
487300450,0,2,2,-4,-17,6,-4084
487301450,0,6,-8,-7,-9,3,-4090
487302450,0,9,-6,-5,-18,25,-4097
487303450,0,4,0,-10,-20,10,-4090
487304450,0,4,-9,-7,-8,-6,-4092
487305450,0,2,-3,-5,-11,13,-4086
487306450,0,-1,-4,-7,14,7,-4082
487307450,0,1,-2,-6,-12,12,-4085
487308450,0,2,-5,-10,-21,13,-4082
487309450,0,7,-4,-2,-18,-3,-4077
487310450,0,1,-1,-5,-18,26,-4100
487311450,0,2,-4,-3,-21,11,-4097
487312450,0,7,-5,-5,-15,14,-4090
487313450,0,7,-1,-10,-27,15,-4081
487314450,0,2,-6,-9,-21,9,-4084
487315450,0,3,-5,-11,-32,6,-4073
487316450,0,3,-1,-5,-23,7,-4088
487317450,0,7,-1,-8,-1,14,-4096
487318450,0,3,1,-2,-15,17,-4090
487319450,0,9,-7,-7,-2,8,-4086
487320450,0,4,-4,-8,-9,4,-4086
487321450,0,10,-3,-4,-20,5,-4085
487322450,0,13,-8,-3,-13,29,-4086
487323450,0,3,-6,-6,-21,4,-4079
487324450,0,3,2,-8,-19,19,-4099
487325450,0,1,-5,-8,-15,12,-4078
487326450,0,2,-1,-5,-17,12,-4092
487327450,0,4,-5,-4,-15,12,-4083
487328450,0,6,-3,-4,-29,16,-4109
487329450,0,2,-2,-5,-16,15,-4095
487330450,0,3,-2,-9,-14,1,-4096
487331450,0,2,-2,-8,-18,10,-4080
487332450,0,2,-2,-7,-22,-3,-4100
487333450,0,-2,-10,-4,-11,2,-4100
487334450,0,3,-5,-10,-24,6,-4095
487335450,0,4,-1,-6,-31,12,-4083
487336450,0,4,-4,-2,-20,-4,-4094
487337450,0,4,-1,-11,-6,3,-4088
487338450,0,2,-8,-7,-16,13,-4092
487339450,0,8,-2,-5,-7,-3,-4081
487340450,0,14,-4,-8,-7,6,-4083
487341450,0,4,-6,-7,-18,25,-4092
487342450,0,0,1,-5,-31,5,-4088
487343450,0,5,-3,-7,-21,13,-4083
487344450,0,6,-3,-4,-27,10,-4094
487345450,0,8,-6,-10,-24,19,-4091
487346450,0,1,-4,-9,-22,-11,-4083
487347450,0,2,-2,-5,-21,4,-4089
487348450,0,12,-3,-12,-16,10,-4102
487349450,0,7,-10,-5,-32,24,-4086
487350450,0,2,-3,-6,-14,3,-4098
487351450,0,4,-11,-5,-20,-1,-4086
487352450,0,3,-8,-7,-16,8,-4103
487353450,0,3,-1,-3,-9,18,-4094
487354450,0,8,-5,-5,-2,10,-4083
487355450,0,3,-2,-5,-4,18,-4096
487356450,0,1,-3,-8,-26,4,-4085
487357450,0,0,-4,-12,-16,7,-4099
487358450,0,3,-1,-9,-2,9,-4093
487359450,0,3,-10,-4,-8,14,-4078
487360450,0,2,-5,-6,-19,3,-4095
487361450,0,4,-3,-7,-20,12,-4089
487362450,0,8,-4,-7,-20,5,-4080
487363450,0,5,-1,-7,-11,9,-4079
487364450,0,9,-3,-9,-15,-1,-4075
487365450,0,9,-6,-8,-26,18,-4084
487366450,0,4,-5,-6,-10,28,-4082
487367450,0,4,-9,-4,-14,4,-4084
487368450,0,4,-4,-5,-23,2,-4088
487369450,0,5,-1,-5,-16,-1,-4095
487370450,0,5,0,-5,-25,4,-4082
487371450,0,2,-3,-5,-9,31,-4097
487372450,0,5,-6,-9,-21,2,-4097
487373450,0,2,-2,-5,-1,13,-4083
487374450,0,5,-2,-6,-35,26,-4077
487375450,0,10,-12,-11,-9,26,-4091
487376450,0,1,-2,-7,-22,7,-4098
487377450,0,4,0,-9,-23,25,-4077
487378450,0,9,-10,-6,-8,16,-4093
487379450,0,7,-7,-4,-18,6,-4080
487380450,0,4,-3,-11,-10,23,-4084
487381450,0,9,-1,-6,-35,2,-4095
487382450,0,4,-5,-7,-18,5,-4084
487383450,0,10,-8,-12,-11,14,-4096
487384450,0,6,-1,-10,-15,8,-4096
487385450,0,2,2,-5,-6,20,-4084
487386450,0,5,-8,-8,-20,6,-4086
487387450,0,1,-3,-7,-10,15,-4101
487388450,0,0,-2,-6,-12,10,-4096
487389450,0,6,-7,-9,-10,11,-4096
487390450,0,3,1,-6,-14,6,-4105
487391450,0,7,-8,-6,-12,4,-4088
487392450,0,6,-6,-2,-5,17,-4089
487393450,0,5,-8,-9,-1,4,-4086
487394450,0,4,-6,-8,-6,-1,-4101
487395450,0,-2,0,-10,-22,11,-4102
487396450,0,6,-5,-8,-21,4,-4110
487397450,0,7,-6,-6,-9,-13,-4106
487398450,0,8,-4,-6,-28,4,-4084
487399450,0,1,-2,-9,-14,12,-4080
487400450,0,5,-5,-7,-7,17,-4076
487401450,0,-1,-5,-6,-2,-3,-4083
487402450,0,4,0,-8,-16,10,-4101
487403450,0,0,-5,-8,-24,9,-4104
487404450,0,5,-2,-4,-24,2,-4086
487405450,0,8,-8,-8,-10,11,-4091
487406450,0,5,0,-11,-13,10,-4101
487407450,0,2,-1,-4,-10,11,-4101
487408450,0,3,0,-8,-13,16,-4089
487409450,0,6,-3,-7,-11,18,-4067
487410450,0,7,-5,-10,2,14,-4092
487411450,0,2,-9,-8,6,0,-4084
487412450,0,2,-3,-3,-24,9,-4073
487413450,0,1,1,-4,-21,7,-4078
487414450,0,5,-2,-4,-21,25,-4111
487415450,0,4,-7,-7,-23,9,-4097
487416450,0,4,-1,-9,-11,17,-4090
487417450,0,4,0,-4,-13,21,-4092
487418450,0,0,-4,-10,-31,-7,-4089
487419450,0,5,-3,-7,7,16,-4095
487420450,0,3,-7,-7,-11,4,-4081
487421450,0,1,-9,-5,-8,5,-4094
487422450,0,2,-7,-6,-7,-3,-4083
487423450,0,7,-7,-11,-22,12,-4071
487424450,0,4,-3,-5,-2,2,-4085
487425450,0,10,0,-7,-18,9,-4078
487426450,0,5,-3,-1,-13,18,-4094
487427450,0,3,4,-1,-1,9,-4101
487428450,0,6,-4,-7,3,10,-4088
487429450,0,4,-5,-5,-14,12,-4086
487430450,0,4,-7,-12,-10,4,-4087
487431450,0,1,-2,-5,-29,8,-4087
487432450,0,10,-1,-8,-25,5,-4098
487433450,0,2,0,-6,-5,7,-4089
487434450,0,6,-1,-10,-22,20,-4079
487435450,0,6,-2,-10,-15,12,-4096
487436450,0,1,-5,-5,-25,-1,-4095
487437450,0,7,-5,-10,-23,10,-4088
487438450,0,6,-2,-14,-23,17,-4092
487439450,0,1,-3,-10,-5,4,-4083
487440450,0,-1,-4,-8,-7,22,-4091
487441450,0,3,-6,-11,-20,10,-4106
487442450,0,6,-6,-9,-10,0,-4107
487443450,0,2,2,-7,-12,11,-4090
487444450,0,3,2,-8,-19,7,-4095
487445450,0,3,1,-7,-17,10,-4084
487446450,0,4,3,-7,-19,11,-4104
487447450,0,0,-1,-7,-17,2,-4099
487448450,0,9,0,-5,-15,25,-4098
487449450,0,6,-1,-7,-13,17,-4094
487450450,0,10,-6,-9,-10,5,-4085
487451450,0,4,0,-4,-11,10,-4099
487452450,0,2,-7,-4,-19,0,-4098
487453450,0,3,1,-4,-10,8,-4088
487454450,0,5,0,-10,-15,12,-4096
487455450,0,6,-4,-4,-16,6,-4086
487456450,0,5,0,-10,-1,10,-4112
487457450,0,11,-6,-8,-11,17,-4084
487458450,0,1,-2,-5,-17,10,-4097
487459450,0,3,-6,-3,-12,7,-4070
487460450,0,1,-6,-6,-28,10,-4082
487461450,0,2,3,-6,-2,2,-4095
487462450,0,-1,-3,-4,-12,18,-4095
487463450,0,6,-4,-8,-12,11,-4090
487464450,0,-2,-4,-8,-9,11,-4091
487465450,0,4,-5,-6,-7,0,-4071
487466450,0,4,-1,-7,-15,21,-4080
487467450,0,5,-1,-6,-20,13,-4081
487468450,0,8,0,-4,-20,10,-4087
487469450,0,2,-1,-8,-8,15,-4085
487470450,0,6,-2,-12,-14,2,-4070
487471450,0,3,-5,-8,-11,13,-4084
487472450,0,2,-2,-4,-13,5,-4087
487473450,0,9,-4,-5,-23,4,-4079
487474450,0,7,-3,-9,-14,13,-4072
487475450,0,4,-6,-8,-14,-3,-4076
487476450,0,0,1,-5,-25,19,-4092
487477450,0,5,-7,-10,-5,17,-4077
487478450,0,3,-1,-10,-15,0,-4065
487479450,0,7,-5,-7,1,8,-4077
487480450,0,2,2,-5,-8,12,-4077
487481450,0,6,2,-9,-7,16,-4090
487482450,0,9,-12,-13,-14,23,-4084
487483450,0,4,-1,-3,-6,7,-4091
487484450,0,11,-3,-8,-10,15,-4105
487485450,0,7,-3,-5,-14,15,-4089
487486450,0,5,-2,-12,-5,17,-4094
487487450,0,10,-11,-9,-10,9,-4092
487488450,0,2,-3,-12,-21,19,-4085
487489450,0,10,-7,-13,-25,19,-4094
487490450,0,7,-2,-6,-20,18,-4105
487491450,0,4,-5,-7,-15,18,-4091
487492450,0,10,-9,-7,-21,15,-4108
487493450,0,1,-6,-8,-10,5,-4098
487494450,0,7,-5,-5,-16,15,-4100
487495450,0,5,-5,-3,-3,24,-4104
487496450,0,1,-3,-6,-4,8,-4084
487497450,0,5,-2,-1,-20,15,-4102
487498450,0,4,-6,-3,-3,17,-4113
487499450,0,2,-5,-4,-23,2,-4092
487500450,0,3,-3,-7,4,13,-4106
487501450,0,7,-4,-5,-23,-7,-4086
487502450,0,7,-2,-6,-23,-4,-4101
487503450,0,6,-10,-9,-4,4,-4085
487504450,0,3,-1,-4,-7,14,-4090
487505450,0,1,-5,-7,-4,19,-4081
487506450,0,1,-3,-5,-21,12,-4098
487507450,0,9,-6,-8,-25,-3,-4088
487508450,0,12,-5,-7,-14,16,-4083
487509450,0,7,-9,-10,-17,8,-4082
487510450,0,4,1,-7,-8,-1,-4089
487511450,0,2,-8,-7,-24,1,-4080
487512450,0,7,-3,-3,-24,6,-4088
487513450,0,9,-2,-5,-21,-4,-4101
487514450,0,6,-6,-6,-17,2,-4084
487515450,0,0,-1,-6,-26,7,-4081
487516450,0,2,-2,-7,-27,12,-4101
487517450,0,8,-5,-9,-13,8,-4089
487518450,0,-1,-7,-3,-14,14,-4095
487519450,0,5,-3,-8,-10,4,-4084
487520450,0,9,-5,-4,-20,14,-4076
487521450,0,2,-1,-5,-19,5,-4077
487522450,0,-1,-3,-8,-14,9,-4082
487523450,0,7,1,-5,-25,0,-4091
487524450,0,6,-6,-9,4,0,-4079
487525450,0,4,-3,-7,-24,17,-4100
487526450,0,6,-2,-5,-20,-3,-4095
487527450,0,3,-3,-4,-32,-3,-4091
487528450,0,3,-4,-10,-13,23,-4084
487529450,0,1,-8,-8,-16,9,-4089
487530450,0,6,-2,-5,-6,10,-4083
487531450,0,5,-2,-4,-16,-5,-4078
487532450,0,4,-3,-5,-23,4,-4089
487533450,0,2,-1,-3,-23,22,-4094
487534450,0,1,0,0,-15,3,-4078
487535450,0,7,-8,-2,-18,7,-4096
487536450,0,0,0,-7,-18,16,-4085
487537450,0,2,-10,-10,-5,9,-4092
487538450,0,12,-6,-9,-19,15,-4089
487539450,0,5,-2,-12,-17,8,-4108
487540450,0,7,-8,-10,-18,27,-4091
487541450,0,6,0,-8,-11,18,-4095
487542450,0,7,-8,-9,-23,9,-4086
487543450,0,6,-6,-9,-17,7,-4084
487544450,0,8,-2,-5,-13,9,-4095
487545450,0,0,-4,-4,-15,14,-4091
487546450,0,1,1,0,-18,14,-4096
487547450,0,6,-2,-2,-1,10,-4096
487548450,0,6,-1,-9,-25,4,-4096
487549450,0,5,0,-10,-25,5,-4099
487550450,0,4,-2,-4,-17,23,-4093
487551450,0,-4,-6,-6,-35,18,-4095
487552450,0,1,-6,-8,-16,-5,-4090
487553450,0,5,-7,-4,-22,12,-4091
487554450,0,7,-4,-6,-16,17,-4096
487555450,0,1,-4,-3,-28,7,-4086
487556450,0,8,-8,-4,1,15,-4093
487557450,0,4,-3,-6,-22,3,-4090
487558450,0,2,-2,-4,0,14,-4096
487559450,0,7,-8,-9,-9,18,-4094
487560450,0,6,-4,-4,-7,7,-4076
487561450,0,5,-4,-7,-15,28,-4086
487562450,0,6,-6,-5,-15,14,-4102
487563450,0,-1,2,-5,-15,6,-4095
487564450,0,4,-9,-3,-10,16,-4112
487565450,0,3,-2,-6,-2,18,-4094
487566450,0,3,-2,-5,-12,4,-4090
487567450,0,7,-8,-7,-19,3,-4094
487568450,0,4,0,-6,-15,-5,-4087
487569450,0,4,-7,-10,-27,12,-4086
487570450,0,1,1,-6,-16,9,-4098
487571450,0,3,-3,-5,-36,32,-4094
487572450,0,7,-5,-11,-25,21,-4098
487573450,0,0,-6,-6,-28,18,-4086
487574450,0,5,-3,-10,-9,12,-4089
487575450,0,3,-5,-8,-10,7,-4096
487576450,0,2,-6,-7,-10,14,-4078
487577450,0,12,-3,-3,-5,12,-4073
487578450,0,9,-7,-7,-1,3,-4094
487579450,0,-2,-1,-5,-8,24,-4089
487580450,0,2,-8,-5,-16,1,-4075
487581450,0,5,-5,-12,-9,9,-4100
487582450,0,1,5,-7,-13,4,-4093
487583450,0,3,-4,-7,1,3,-4082
487584450,0,3,-3,-7,-3,13,-4092
487585450,0,0,-1,-6,-14,11,-4077
487586450,0,6,-1,-7,-15,10,-4104
487587450,0,5,0,-9,-18,-3,-4084
487588450,0,12,-3,-5,-18,11,-4092
487589450,0,11,-2,-6,-24,-1,-4094
487590450,0,1,-10,0,-17,24,-4095
487591450,0,9,-4,-6,-11,10,-4095
487592450,0,1,-2,-7,-5,8,-4095
487593450,0,8,-10,-8,-17,12,-4079
487594450,0,5,-7,-7,-16,21,-4086
487595450,0,5,1,-7,-8,20,-4098
487596450,0,4,-11,-4,-12,3,-4076
487597450,0,5,-4,-8,-5,16,-4089
487598450,0,3,-4,-5,-18,12,-4098
487599450,0,8,-6,-6,-23,0,-4087
487600450,0,2,1,-5,-14,0,-4092
487601450,0,5,-4,-3,-29,10,-4086
487602450,0,6,-3,-2,-32,6,-4078
487603450,0,6,-5,-5,-11,6,-4111
487604450,0,4,1,-10,-21,6,-4095
487605450,0,6,-4,-9,-16,3,-4086
487606450,0,4,-3,-9,-15,14,-4080
487607450,0,8,-4,-12,-6,10,-4094
487608450,0,2,-9,-6,-8,14,-4104
487609450,0,3,-2,-13,-15,10,-4116
487610450,0,3,-3,-8,-13,0,-4081
487611450,0,-4,-6,-7,-3,4,-4092
487612450,0,7,-8,-7,-6,0,-4095
487613450,0,8,-5,-8,-12,12,-4097
487614450,0,3,-6,-4,-21,8,-4094
487615450,0,5,-5,-6,2,-1,-4100
487616450,0,-1,-6,-8,-11,12,-4094
487617450,0,0,-8,-8,-5,15,-4094
487618450,0,1,-3,-2,-16,-18,-4096
487619450,0,4,-6,-5,-8,-14,-4101
487620450,0,6,-7,-12,-12,5,-4092
487621450,0,0,5,-8,-17,7,-4090
487622450,0,4,-9,-9,-6,13,-4094
487623450,0,6,-5,-8,-9,4,-4098
487624450,0,0,4,-7,-11,-11,-4086
487625450,0,7,-4,-11,-5,7,-4089
487626450,0,8,-5,-7,-5,8,-4072
487627450,0,5,0,-3,-12,16,-4087
487628450,0,10,-3,-8,-7,-7,-4080
487629450,0,3,0,-8,-34,22,-4080
487630450,0,7,-7,-5,-10,4,-4088
487631450,0,3,-10,-1,-18,12,-4095
487632450,0,4,-4,-4,-17,-9,-4085
487633450,0,5,-8,-6,-8,0,-4095
487634450,0,7,-2,-7,-11,-4,-4084
487635450,0,-1,-5,-7,-11,11,-4082
487636450,0,3,-7,-2,-10,9,-4090
487637450,0,0,-3,-5,4,11,-4095
487638450,0,4,-5,-8,-25,15,-4077
487639450,0,4,-4,-8,-14,2,-4097
487640450,0,3,0,-7,-13,6,-4094
487641450,0,8,-2,-6,-18,11,-4101
487642450,0,6,-3,-6,-26,10,-4072
487643450,0,6,-3,-8,-5,10,-4092
487644450,0,9,0,-10,-28,28,-4100
487645450,0,6,-3,-6,-17,8,-4103
487646450,0,3,-6,-3,-14,16,-4097
487647450,0,-4,-2,-2,-16,10,-4091
487648450,0,1,-4,-5,-17,3,-4099
487649450,0,4,-4,-13,-9,33,-4088
487650450,0,1,0,-4,-11,19,-4093
487651450,0,6,-4,-6,-18,8,-4081
487652450,0,11,-5,-7,-17,16,-4100
487653450,0,5,-2,-3,-23,3,-4093
487654450,0,8,-7,-8,-23,17,-4082
487655450,0,2,-1,-8,-19,19,-4085
487656450,0,1,-3,-5,-12,0,-4098
487657450,0,6,-3,-5,-7,-7,-4088
487658450,0,7,-6,-5,-6,14,-4088
487659450,0,3,4,-7,-29,4,-4090
487660450,0,6,-7,-7,-3,1,-4102
487661450,0,3,-7,-7,-9,11,-4094
487662450,0,2,-5,-11,-18,17,-4101
487663450,0,11,-6,-10,2,-13,-4116
487664450,0,3,-3,-5,11,-10,-4098
487665450,0,3,-9,-13,-35,-1,-4071
487666450,0,6,-6,-8,-18,-19,-4095
487667450,0,1,2,-4,-32,0,-4079
487668450,0,1,-3,-3,-27,21,-4089
487669450,0,1,0,-2,-17,12,-4093
487670450,0,3,-9,-9,12,-2,-4072
487671450,0,10,1,-3,-3,31,-4064
487672450,0,7,-8,-7,-11,21,-4094
487673450,0,5,-6,-2,9,9,-4098
487674450,0,2,0,-5,-10,5,-4084
487675450,0,4,-7,-7,-18,9,-4099
487676450,0,9,-10,-8,-10,-35,-4110
487677450,0,-1,-4,-10,-12,-10,-4083
487678450,0,-1,-4,-11,-35,16,-4075
487679450,0,5,0,-5,-17,4,-4105
487680450,0,2,-7,-7,7,-2,-4097
487681450,0,3,-4,-4,-32,20,-4078
487682450,0,0,-3,-8,-35,29,-4094
487683450,0,12,2,-8,-10,12,-4090
487684450,0,1,-3,-6,-19,-7,-4082
487685450,0,1,2,-6,-21,22,-4076
487686450,0,6,-2,-5,-13,10,-4087
487687450,0,6,-1,-7,-4,14,-4077
487688450,0,1,-4,-4,-6,15,-4075
487689450,0,4,-8,-6,-9,34,-4082
487690450,0,2,0,-11,-11,-2,-4086
487691450,0,3,0,-2,-13,9,-4084
487692450,0,9,-2,-10,-15,9,-4072
487693450,0,5,1,-6,-23,16,-4072
487694450,0,2,-3,-5,-3,11,-4075
487695450,0,1,1,-7,5,2,-4076
487696450,0,-5,-4,-5,-5,0,-4089
487697450,0,1,-7,-10,-11,8,-4087
487698450,0,4,-1,-8,-8,10,-4091
487699450,0,2,-4,-4,2,4,-4087
487700450,0,5,-7,-9,-18,28,-4068
487701450,0,2,-1,-8,-12,26,-4086
487702450,0,4,0,-6,-23,21,-4109
487703450,0,-2,-2,-4,-21,21,-4096
487704450,0,3,-7,-4,-21,-5,-4084
487705450,0,6,2,-8,-22,8,-4085
487706450,0,3,1,-1,-20,4,-4098
487707450,0,7,-9,-7,-26,-2,-4093
487708450,0,3,-7,-11,-12,-11,-4095
487709450,0,7,3,-11,-24,6,-4104
487710450,0,6,-3,-9,-16,8,-4082
487711450,0,-1,-5,-12,-10,16,-4094
487712450,0,-2,-2,-9,-2,21,-4090
487713450,0,8,-2,-9,-7,23,-4101
487714450,0,5,-4,-11,0,30,-4084
487715450,0,11,-5,-3,-28,11,-4087
487716450,0,7,-8,-7,-37,13,-4093
487717450,0,6,3,-3,-19,17,-4107
487718450,0,7,-4,1,-24,-4,-4109
487719450,0,1,-3,-7,-24,8,-4087
487720450,0,2,-2,-2,-18,2,-4109
487721450,0,6,-6,-5,-8,-1,-4089
487722450,0,0,-4,-6,-19,1,-4097
487723450,0,6,-1,-7,-9,7,-4099
487724450,0,3,1,-4,-16,21,-4096
487725450,0,0,1,-7,-25,9,-4086
487726450,0,2,-3,-11,-12,3,-4084
487727450,0,10,-2,-7,-13,0,-4088
487728450,0,6,0,-10,-16,17,-4074
487729450,0,4,-2,-6,-5,-2,-4081
487730450,0,4,1,-6,-2,12,-4085
487731450,0,5,-5,-7,-15,7,-4065
487732450,0,2,-2,2,-28,7,-4086
487733450,0,3,-2,-6,-19,5,-4093
487734450,0,5,-5,-7,-8,5,-4062
487735450,0,0,2,-8,-5,4,-4101
487736450,0,3,0,-9,-12,15,-4078
487737450,0,4,-3,-3,-29,10,-4083
487738450,0,1,-7,-9,4,17,-4086
487739450,0,2,-12,-9,-5,9,-4087
487740450,0,5,-6,-7,-24,13,-4089
487741450,0,8,-4,-12,-17,-2,-4096
487742450,0,5,1,-9,-24,10,-4091
487743450,0,0,-1,-6,-16,13,-4105
487744450,0,4,0,-7,-15,23,-4087
487745450,0,6,-6,-11,13,-9,-4093
487746450,0,9,-3,-6,-13,9,-4086
487747450,0,9,-7,-5,-32,-7,-4090
487748450,0,8,1,-4,-18,0,-4092
487749450,0,2,-2,-5,-13,15,-4094
487750450,0,1,-11,-12,-25,-1,-4095
487751450,0,4,-4,-9,-2,6,-4092
487752450,0,2,-5,-3,-10,16,-4100
487753450,0,5,-4,-8,-18,12,-4098
487754450,0,2,-6,-8,-8,3,-4079
487755450,0,7,-1,-4,-4,8,-4082
487756450,0,10,-1,-5,-10,19,-4097
487757450,0,4,-3,-7,-15,22,-4083
487758450,0,7,-4,-6,-12,3,-4091
487759450,0,8,-2,-8,-22,-2,-4088
487760450,0,5,-7,-2,-12,2,-4093
487761450,0,6,-8,-5,-29,9,-4081
487762450,0,2,-2,-3,-18,11,-4084
487763450,0,3,-7,-6,-8,23,-4091
487764450,0,2,-2,-6,-23,9,-4098
487765450,0,1,-2,-4,-17,5,-4082
487766450,0,11,-5,-9,-33,-5,-4111
487767450,0,0,-5,-4,-32,-2,-4100
487768450,0,6,-2,-5,-15,-3,-4112
487769450,0,4,-7,-10,-17,-3,-4114
487770450,0,2,-1,-7,-18,12,-4111
487771450,0,3,-5,-7,-19,18,-4093
487772450,0,5,-3,-14,-18,5,-4093
487773450,0,3,-4,-10,-5,19,-4102
487774450,0,2,-2,-9,-13,17,-4098
487775450,0,3,-4,-9,-20,13,-4097
487776450,0,-1,-5,-5,-19,13,-4102
487777450,0,1,-4,-4,-12,14,-4081
487778450,0,4,2,-6,-21,15,-4101
487779450,0,4,-8,-4,-11,3,-4092
487780450,0,8,-3,-3,-11,16,-4088
487781450,0,7,-7,-4,-20,7,-4096
487782450,0,5,-10,-9,-15,15,-4100
487783450,0,4,2,-5,-12,-1,-4092
487784450,0,6,-2,-11,-8,-5,-4072
487785450,0,10,-8,-7,-6,8,-4087
487786450,0,2,-7,-14,-9,-6,-4077
487787450,0,3,-3,-7,-14,8,-4080
487788450,0,-3,-3,-4,-6,-9,-4078
487789450,0,4,-4,-6,-10,2,-4090
487790450,0,2,-2,-6,6,-4,-4071
487791450,0,3,-6,-6,-3,11,-4086
487792450,0,3,-1,-2,-14,14,-4086
487793450,0,5,-7,-4,5,18,-4092
487794450,0,0,-6,-10,-9,3,-4082
487795450,0,2,-6,-4,-17,-6,-4083
487796450,0,1,-5,-7,-13,-1,-4091
487797450,0,0,-3,-8,2,10,-4100
487798450,0,6,-7,-6,-5,3,-4080
487799450,0,3,-6,-6,-23,21,-4097
487800450,0,8,-3,-5,-24,12,-4084
487801450,0,8,-4,-5,-13,13,-4094
487802450,0,4,-4,-8,-25,28,-4095
487803450,0,4,-8,-9,-9,16,-4092
487804450,0,2,-3,-4,-10,10,-4082
487805450,0,6,-3,-2,-17,10,-4077
487806450,0,11,-5,-8,-14,21,-4100
487807450,0,4,-2,-6,-27,18,-4102
487808450,0,2,-2,-3,-15,6,-4096
487809450,0,2,-3,-6,-24,7,-4079
487810450,0,3,-3,-6,-16,18,-4085
487811450,0,8,-6,-9,-25,7,-4094
487812450,0,7,-4,-9,-3,16,-4092
487813450,0,3,-5,-9,-16,9,-4098
487814450,0,7,-2,-7,-20,16,-4089
487815450,0,-3,-2,-9,-10,6,-4080
487816450,0,6,-10,-9,-11,12,-4104
487817450,0,6,-7,-13,-8,8,-4086
487818450,0,3,0,-3,-21,5,-4080
487819450,0,1,-3,-4,-6,12,-4095
487820450,0,6,-4,-5,-27,9,-4101
487821450,0,6,-4,-7,-27,1,-4092
487822450,0,6,-4,-6,-16,15,-4082
487823450,0,5,-4,-6,-26,10,-4091
487824450,0,1,-7,-1,-23,4,-4095
487825450,0,1,-8,-3,-7,2,-4099
487826450,0,10,2,-5,-10,13,-4091
487827450,0,2,-4,0,-27,-9,-4090
487828450,0,7,-3,-5,-10,1,-4096
487829450,0,1,0,-2,-3,-7,-4088
487830450,0,10,-4,-5,-15,11,-4113
487831450,0,4,0,-9,-13,10,-4100
487832450,0,5,-1,-10,-10,11,-4096
487833450,0,7,-7,-8,-16,21,-4105
487834450,0,11,-2,-14,-18,12,-4096
487835450,0,6,-7,-9,-25,10,-4097
487836450,0,1,-1,-15,-3,2,-4089
487837450,0,5,-6,-7,-13,0,-4104
487838450,0,4,-4,-12,-16,23,-4098
487839450,0,0,4,-7,-17,15,-4082
487840450,0,2,-6,-4,-17,0,-4089
487841450,0,8,-10,-10,-21,12,-4095
487842450,0,-1,-7,-1,-22,11,-4089
487843450,0,1,-5,0,-10,20,-4081
487844450,0,2,-4,-2,-12,9,-4076
487845450,0,4,0,-8,-15,3,-4078
487846450,0,5,0,-6,-16,14,-4078
487847450,0,-1,-2,-8,-22,3,-4083
487848450,0,1,-5,-5,-30,7,-4087
487849450,0,1,0,-4,3,18,-4078
487850450,0,2,-5,-8,-24,9,-4087
487851450,0,5,-8,-3,-20,1,-4077
487852450,0,4,-4,-8,-13,10,-4083
487853450,0,2,-4,-8,-16,1,-4099
487854450,0,5,-7,-4,-12,6,-4077
487855450,0,3,-6,-5,-26,6,-4093
487856450,0,5,-2,-11,-19,9,-4082
487857450,0,4,-3,-9,-22,15,-4086
487858450,0,4,-1,-7,-25,16,-4094
487859450,0,5,-5,-9,-20,16,-4080
487860450,0,10,-1,-8,-19,10,-4085
487861450,0,2,-3,-7,-18,17,-4089
487862450,0,8,-7,-6,-11,0,-4089
487863450,0,2,1,-3,-6,13,-4094
487864450,0,7,-7,-5,-22,17,-4093
487865450,0,4,-2,-4,-15,22,-4093
487866450,0,8,-4,-7,-14,11,-4086
487867450,0,2,-6,-2,6,17,-4112
487868450,0,7,0,-5,-17,14,-4092
487869450,0,4,-7,-4,-5,3,-4089
487870450,0,6,-2,-10,-16,8,-4101
487871450,0,0,0,-4,-26,13,-4096
487872450,0,6,-2,-4,-17,0,-4096
487873450,0,7,-5,-7,-25,2,-4098
487874450,0,10,-1,-5,-16,15,-4105
487875450,0,4,-5,-8,-21,3,-4094
487876450,0,6,-5,-10,-24,18,-4083
487877450,0,3,-5,-9,-21,4,-4090
487878450,0,6,-3,-8,-9,9,-4064
487879450,0,2,2,-7,-26,1,-4082
487880450,0,-2,-4,-6,-21,16,-4102
487881450,0,7,-3,-6,-15,-8,-4066
487882450,0,3,-4,-7,-17,14,-4076
487883450,0,2,-5,-4,-2,10,-4082
487884450,0,6,2,-7,4,10,-4083
487885450,0,9,-3,-7,-15,-9,-4088
487886450,0,1,-5,-9,-7,13,-4086
487887450,0,11,-4,-9,-8,1,-4081
487888450,0,5,-3,-8,-12,6,-4084
487889450,0,8,-3,-7,-1,6,-4090
487890450,0,2,-3,-3,-16,16,-4095
487891450,0,4,-3,-7,-12,3,-4080
487892450,0,4,0,-8,-6,14,-4097
487893450,0,6,-1,-6,-6,8,-4087
487894450,0,9,-3,-7,-10,4,-4082
487895450,0,1,-3,-2,-16,0,-4087
487896450,0,9,-7,-6,-18,10,-4093
487897450,0,0,3,-10,-14,2,-4101
487898450,0,8,-3,-10,-3,7,-4098
487899450,0,9,-3,-6,-29,15,-4085
487900450,0,6,1,-5,-35,6,-4089
487901450,0,4,-8,-8,-26,-10,-4100
487902450,0,4,-6,-8,-26,11,-4074
487903450,0,6,1,-7,2,16,-4090
487904450,0,10,-5,-9,-19,2,-4100
487905450,0,7,-6,-6,-12,-7,-4082
487906450,0,3,-1,-10,-23,10,-4088
487907450,0,0,-9,-7,-10,32,-4078
487908450,0,8,-1,-4,-27,18,-4071
487909450,0,5,-5,-6,-12,24,-4096
487910450,0,9,-7,-11,-10,6,-4085
487911450,0,6,-1,-10,-27,7,-4078
487912450,0,8,-4,-5,-19,10,-4088
487913450,0,3,-1,-6,-14,21,-4083
487914450,0,1,1,-5,-13,10,-4078
487915450,0,10,-9,-4,-11,6,-4080
487916450,0,4,-5,-3,-20,4,-4077
487917450,0,5,-3,-6,-14,3,-4085
487918450,0,3,-7,-7,-4,14,-4097
487919450,0,1,-3,-10,-13,18,-4101
487920450,0,3,-1,-8,-10,4,-4091
487921450,0,1,-1,-10,-1,15,-4095
487922450,0,3,-2,-9,-17,-1,-4092
487923450,0,11,-2,-11,-16,11,-4095
487924450,0,1,-2,-11,-7,14,-4096
487925450,0,3,-4,-10,-2,5,-4104
487926450,0,5,-6,-6,-30,16,-4112
487927450,0,2,-4,-5,-12,-1,-4120
487928450,0,7,-8,-8,-28,2,-4077
487929450,0,7,-3,-10,-4,-8,-4095
487930450,0,-1,-4,-3,-7,12,-4096
487931450,0,8,-4,-6,-21,2,-4085
487932450,0,3,-4,-8,-8,18,-4095
487933450,0,8,-5,-7,-19,14,-4093
487934450,0,3,-6,-6,-8,12,-4081
487935450,0,2,-2,-1,-6,3,-4099
487936450,0,0,-7,-5,-20,-3,-4086
487937450,0,-2,-3,-6,-6,2,-4078
487938450,0,3,-5,-2,-19,4,-4084
487939450,0,5,-5,-5,-4,11,-4099
487940450,0,7,-5,-2,-17,1,-4098
487941450,0,7,-4,-7,-26,6,-4091
487942450,0,4,-6,-9,-13,3,-4099
487943450,0,4,-2,-5,-14,5,-4077
487944450,0,8,-11,-5,-23,8,-4077
487945450,0,1,-2,-10,11,5,-4087
487946450,0,2,-3,-8,-12,1,-4074
487947450,0,1,-8,-5,-12,2,-4082
487948450,0,4,-5,-5,-18,20,-4085
487949450,0,8,-6,-10,-11,6,-4093
487950450,0,6,-6,-8,-25,0,-4100
487951450,0,1,-4,-2,-18,19,-4101
487952450,0,6,-8,-6,-15,29,-4087
487953450,0,8,-8,-7,-16,26,-4088
487954450,0,5,-2,-6,-18,8,-4097
487955450,0,7,-4,-7,-10,8,-4076
487956450,0,-2,-6,-8,-14,6,-4076
487957450,0,3,-3,-7,-34,4,-4082
487958450,0,8,-6,-10,-18,7,-4093
487959450,0,7,-3,-8,-5,9,-4097
487960450,0,2,-5,-9,-12,11,-4091
487961450,0,5,-3,-6,-12,9,-4088
487962450,0,6,-5,-4,-25,13,-4101
487963450,0,8,-6,-11,-13,11,-4104
487964450,0,-1,-4,-5,-20,16,-4098
487965450,0,1,-2,-8,-11,21,-4103
487966450,0,5,-2,-9,8,12,-4093
487967450,0,6,-3,-9,-19,6,-4082
487968450,0,10,-6,-4,-28,10,-4097
487969450,0,6,2,-3,-19,0,-4090
487970450,0,3,-4,-1,-30,0,-4100
487971450,0,3,-11,-6,-19,-1,-4093
487972450,0,7,-2,-3,-24,8,-4084
487973450,0,9,-7,-5,-14,14,-4106
487974450,0,3,-7,-4,-16,8,-4094
487975450,0,-4,1,-3,-22,2,-4082
487976450,0,4,-8,-8,-3,15,-4068
487977450,0,7,-7,-6,-13,4,-4086
487978450,0,4,-3,-9,-1,17,-4073
487979450,0,8,-6,-12,-4,1,-4086
487980450,0,8,-1,-11,-16,-6,-4079
487981450,0,9,-6,-7,-1,8,-4082
487982450,0,3,-4,-10,-14,-9,-4093
487983450,0,1,-2,-5,-14,12,-4088
487984450,0,1,-5,-8,-29,3,-4087
487985450,0,8,-5,-2,-16,0,-4092
487986450,0,0,1,-7,-13,16,-4088
487987450,0,6,-5,-5,-16,-1,-4086
487988450,0,11,-6,-9,-17,1,-4080
487989450,0,6,-5,-5,-18,6,-4107
487990450,0,4,-6,-10,-22,10,-4094
487991450,0,5,-3,-8,-15,6,-4097
487992450,0,9,-8,-10,-19,-5,-4093
487993450,0,3,-1,-9,-10,24,-4093
487994450,0,8,-3,-4,-21,3,-4085
487995450,0,8,-6,-7,-13,12,-4089
487996450,0,1,-1,-5,-30,-1,-4090
487997450,0,10,-4,-4,-14,9,-4094
487998450,0,0,-3,-10,-2,-6,-4092
487999450,0,4,-1,-6,-15,19,-4098
488000450,0,8,-6,-8,-13,16,-4092
488001450,0,3,-3,-15,7,22,-4088
488002450,0,5,0,-6,-14,0,-4095
488003450,0,5,-5,-9,-23,6,-4084
488004450,0,-4,4,-3,-13,20,-4107
488005450,0,7,-2,-5,-17,6,-4099
488006450,0,8,-2,-5,-27,16,-4081
488007450,0,2,-3,-9,-20,21,-4101
488008450,0,2,-3,-8,-14,16,-4098
488009450,0,4,-3,-10,-18,8,-4092
488010450,0,7,-9,-11,-14,7,-4102
488011450,0,7,-2,-7,-8,10,-4090
488012450,0,-1,0,-5,-22,9,-4076
488013450,0,7,-10,-8,-6,-2,-4085
488014450,0,8,-5,-6,-21,7,-4084
488015450,0,2,-6,-8,-3,-9,-4078
488016450,0,1,-3,-4,9,17,-4082
488017450,0,5,1,-1,-3,9,-4088
488018450,0,6,-2,-5,-14,11,-4073
488019450,0,7,-4,-5,-4,23,-4090
488020450,0,3,0,-9,-16,0,-4068
488021450,0,5,-5,-6,-28,6,-4088
488022450,0,5,-4,-8,-16,2,-4080
488023450,0,1,-3,-8,-10,6,-4102
488024450,0,2,-6,-5,-20,-4,-4088
488025450,0,0,-3,-5,-34,8,-4100
488026450,0,2,-5,-5,-20,7,-4101
488027450,0,3,-3,-6,-22,14,-4096
488028450,0,5,-4,-9,-14,9,-4096
488029450,0,2,-1,-6,-18,16,-4096
488030450,0,7,-5,-8,-18,12,-4088
488031450,0,7,-5,-8,-24,-2,-4107
488032450,0,7,-9,-9,-2,11,-4093
488033450,0,7,-3,-3,-22,9,-4102
488034450,0,7,2,-10,-24,8,-4096
488035450,0,11,-8,-12,-28,21,-4102
488036450,0,6,-1,-5,-20,21,-4095
488037450,0,7,-1,-8,-22,18,-4081
488038450,0,7,-6,-12,-19,5,-4085
488039450,0,0,1,-9,-30,1,-4088
488040450,0,5,-5,-6,-12,14,-4087
488041450,0,3,-2,-8,-22,9,-4097
488042450,0,-1,-7,-8,-19,-2,-4096
488043450,0,11,-9,-7,-26,-7,-4092
488044450,0,-1,2,-4,-17,8,-4102
488045450,0,5,-8,-9,-19,6,-4080
488046450,0,9,0,-10,-14,6,-4091
488047450,0,8,-4,-9,-6,4,-4084
488048450,0,3,-4,0,-5,15,-4079
488049450,0,0,-3,-5,-11,-2,-4088
488050450,0,1,-4,-7,-22,17,-4080
488051450,0,5,-3,-8,-8,16,-4091
488052450,0,3,-3,-2,-17,-2,-4082
488053450,0,9,-6,-4,-34,5,-4088
488054450,0,1,-6,-5,-24,-2,-4085
488055450,0,2,-6,-3,-18,9,-4082
488056450,0,6,-6,-10,-4,7,-4078
488057450,0,0,-1,-5,-32,2,-4085
488058450,0,7,-11,-10,-27,12,-4086
488059450,0,2,-5,-5,-13,10,-4078
488060450,0,8,-4,-7,-11,10,-4102
488061450,0,0,-2,-5,-22,13,-4089
488062450,0,2,-1,-8,-26,7,-4088
488063450,0,5,-1,-2,-6,-8,-4078
488064450,0,3,-6,-5,-20,-6,-4079
488065450,0,1,-2,-4,-20,14,-4091
488066450,0,1,-5,-7,-2,7,-4091
488067450,0,4,-7,-8,-6,13,-4080
488068450,0,-1,-6,-5,-3,8,-4086
488069450,0,8,-4,-9,7,26,-4089
488070450,0,5,-2,-10,-8,19,-4117
488071450,0,5,-1,-6,-17,23,-4088
488072450,0,8,1,-7,-19,-1,-4111
488073450,0,3,-1,-8,-22,-8,-4107
488074450,0,7,-3,-10,-12,-2,-4092
488075450,0,2,-5,-5,-17,9,-4095
488076450,0,1,1,-6,-9,14,-4099
488077450,0,6,-11,-5,-14,13,-4087
488078450,0,2,2,-6,-8,14,-4095
488079450,0,3,-1,-3,-23,9,-4088
488080450,0,10,-5,-10,-1,10,-4088
488081450,0,5,-3,-7,-25,13,-4079
488082450,0,-1,-7,-6,-6,5,-4092
488083450,0,3,0,-10,0,11,-4099
488084450,0,1,-4,-9,-18,7,-4093
488085450,0,8,-4,-2,-16,-2,-4096
488086450,0,2,-4,-8,-15,4,-4099
488087450,0,3,-8,-13,-10,-3,-4102
488088450,0,2,-8,-7,-24,9,-4102
488089450,0,-4,1,-3,-26,23,-4097
488090450,0,4,-4,-1,-13,4,-4090
488091450,0,10,-3,-6,-15,2,-4091
488092450,0,5,-2,-4,-18,2,-4096
488093450,0,4,-3,-1,-13,8,-4107
488094450,0,-1,-1,-5,-19,6,-4088
488095450,0,5,-10,-5,-15,1,-4081
488096450,0,6,-5,-11,-15,12,-4078
488097450,0,3,1,-7,-13,15,-4083
488098450,0,0,-3,-7,-2,21,-4078
488099450,0,-4,-6,-2,-4,10,-4098
488100450,0,1,-1,-6,-8,4,-4091
488101450,0,7,-5,-13,-19,9,-4089
488102450,0,3,-2,-8,0,3,-4094
488103450,0,2,3,-6,-23,-3,-4090
488104450,0,5,-4,-5,-31,13,-4118
488105450,0,3,-6,-6,-12,24,-4098
488106450,0,6,-9,-7,-14,7,-4104
488107450,0,1,-2,-3,-4,18,-4106
488108450,0,8,-8,-8,-6,16,-4102
488109450,0,7,-5,-10,-18,22,-4113
488110450,0,7,-7,-10,-2,17,-4109
488111450,0,4,-4,-9,-22,17,-4096
488112450,0,3,2,-4,-18,5,-4094
488113450,0,3,-4,-4,-27,9,-4112
488114450,0,8,-5,-5,-34,8,-4084
488115450,0,6,-6,-6,-18,9,-4098
488116450,0,7,-3,-3,-19,3,-4079
488117450,0,7,-4,-11,-18,-2,-4076
488118450,0,-1,-1,-9,-11,12,-4080
488119450,0,2,-1,-7,-18,21,-4081
488120450,0,3,-8,-8,-14,0,-4066
488121450,0,2,0,-3,-11,7,-4070
488122450,0,4,-6,-6,-17,24,-4092
488123450,0,5,-8,-8,-14,7,-4078
488124450,0,8,-3,-6,0,-5,-4087
488125450,0,4,-2,-4,7,20,-4078
488126450,0,5,-1,-7,-6,18,-4104
488127450,0,4,-5,-5,-15,10,-4089
488128450,0,5,-9,-3,-13,0,-4100
488129450,0,1,2,-12,-9,-4,-4089
488130450,0,5,-4,-8,-10,7,-4089
488131451,0,1,-3,-5,-27,-17,-4091
488132453,0,6,-2,-6,-15,12,-4093
488133450,0,5,-6,-7,-34,11,-4098
488134450,0,-1,4,-4,-16,13,-4082
488135450,0,0,-2,-12,-16,8,-4089
488136450,0,8,-2,-12,-15,14,-4101
488137450,0,6,-2,-13,2,23,-4097
488138450,0,4,-2,-13,-17,24,-4091
488139450,0,8,-1,-4,-3,13,-4104
488140450,0,6,1,-2,-18,13,-4104
488141450,0,4,-1,-7,-8,13,-4109
488142450,0,4,-3,-5,-20,9,-4107
488143450,0,3,-3,-7,-22,25,-4103
488144450,0,10,-4,-8,-14,5,-4112
488145450,0,5,-3,-1,-29,3,-4094
488146450,0,8,-6,-9,-16,6,-4092
488147450,0,1,-5,-6,-13,8,-4100
488148450,0,-1,-2,-8,-14,7,-4096
488149450,0,2,-5,-9,-11,13,-4096
488150450,0,3,-1,-6,-4,9,-4090
488151450,0,11,-6,-8,-27,12,-4100
488152450,0,3,-9,-6,-16,10,-4093
488153450,0,1,2,-9,-12,12,-4080
488154450,0,6,-6,-5,-23,5,-4083
488155450,0,7,-5,-4,-16,-5,-4091
488156450,0,1,1,-3,-28,7,-4087
488157450,0,6,-1,-11,-22,5,-4093
488158450,0,1,2,-6,-24,14,-4092
488159450,0,1,-4,-10,-17,0,-4087
488160450,0,8,-5,-7,-14,8,-4082
488161450,0,-1,-5,-9,-19,15,-4091
488162450,0,5,0,-3,-14,1,-4077
488163450,0,2,-7,-4,-16,5,-4079
488164450,0,3,0,-6,-8,10,-4101
488165450,0,4,-8,-5,-10,12,-4085
488166450,0,3,-5,-7,3,7,-4076
488167450,0,7,-3,-6,-19,15,-4072
488168450,0,7,-9,-13,-14,11,-4071
488169450,0,3,-6,-6,-26,11,-4097
488170450,0,10,-4,-7,2,8,-4080
488171450,0,4,-6,-9,-9,-4,-4101
488172450,0,1,-4,-6,-20,-3,-4097
488173450,0,11,-9,-7,-11,5,-4099
488174450,0,9,-4,-8,-9,22,-4103
488175450,0,9,-10,-13,-11,16,-4104
488176450,0,2,0,-5,-5,11,-4102
488177450,0,6,-2,-6,-16,16,-4105
488178450,0,7,-14,-5,-11,6,-4107
488179450,0,3,-6,-5,-9,11,-4106
488180450,0,11,-1,-8,2,14,-4101
488181450,0,4,-4,-4,-19,5,-4093
488182450,0,4,-3,-8,-22,0,-4094
488183450,0,3,-2,-8,-10,14,-4088
488184450,0,9,-4,-9,-16,18,-4080
488185450,0,3,-1,-9,-29,18,-4068
488186450,0,7,-8,-9,-15,5,-4099
488187450,0,7,-1,-11,-5,-8,-4085
488188450,0,5,-4,-9,-23,14,-4090
488189450,0,3,-7,-10,-13,12,-4083
488190450,0,10,-2,-10,-20,5,-4089
488191450,0,-1,-4,-8,-18,10,-4083
488192450,0,7,-9,-10,-19,1,-4098
488193450,0,7,-6,-5,-18,2,-4080
488194450,0,0,-6,-1,-12,2,-4089
488195450,0,2,-5,-5,-25,6,-4084
488196450,0,7,-4,-3,-11,-1,-4094
488197450,0,7,-8,-3,-29,8,-4091
488198450,0,7,1,-6,-14,11,-4096
488199450,0,0,-1,-6,-12,-4,-4098
488200450,0,6,-3,-4,-4,8,-4093
488201450,0,-1,1,-4,-8,13,-4103
488202450,0,4,2,-6,-21,-7,-4083
488203450,0,7,-3,-9,-9,-1,-4087
488204450,0,-1,-7,-7,-17,7,-4082
488205450,0,2,1,-7,-9,10,-4090
488206450,0,3,-8,-9,-20,9,-4089
488207450,0,10,-7,-11,-8,6,-4081
488208450,0,7,2,-11,-27,10,-4089
488209450,0,3,-4,-12,-22,22,-4091
488210450,0,5,-4,-6,-8,5,-4089
488211450,0,6,-8,-11,-11,7,-4108
488212450,0,1,-4,-9,-14,22,-4103
488213450,0,5,-10,-8,-24,-3,-4092
488214450,0,5,-3,-5,-30,11,-4099
488215450,0,4,-3,-6,-34,16,-4086
488216450,0,4,-10,-2,-16,18,-4094
488217450,0,1,-1,-5,-36,0,-4079
488218450,0,9,-10,-10,0,12,-4095
488219450,0,1,-5,-6,-16,12,-4096
488220450,0,8,-1,-4,-17,23,-4096
488221450,0,5,-4,-10,-17,-8,-4076
488222450,0,-2,0,-5,-7,1,-4098
488223450,0,6,-6,-7,-30,10,-4084
488224450,0,2,-4,-7,-3,6,-4070
488225450,0,5,-3,-10,-16,3,-4090
488226450,0,1,-4,-6,-14,13,-4086
488227450,0,2,-1,-1,-7,6,-4079
488228450,0,6,-4,-6,0,24,-4086
488229450,0,13,-11,-9,-18,8,-4089
488230450,0,1,-5,-6,-10,-1,-4073
488231450,0,6,-4,-7,-10,-2,-4086
488232450,0,3,-6,-8,-22,11,-4079
488233450,0,3,-2,-8,-21,15,-4084
488234450,0,3,-3,-9,-20,13,-4087
488235450,0,4,0,-11,2,-2,-4104
488236450,0,7,-3,-7,-10,-6,-4086
488237450,0,5,-2,-8,-11,1,-4082
488238450,0,4,-4,-6,-24,4,-4104
488239450,0,9,1,-2,-12,18,-4089
488240450,0,6,1,-9,-10,16,-4102
488241450,0,0,0,-4,-13,13,-4093
488242450,0,7,-5,-1,-2,13,-4075
488243450,0,5,-6,-8,-15,22,-4087
488244450,0,3,-1,-7,-19,16,-4087
488245450,0,5,0,-7,13,7,-4094
488246450,0,2,-2,-9,-21,17,-4093
488247450,0,5,-9,-7,2,17,-4093
488248450,0,3,-3,-7,-19,21,-4102
488249450,0,2,-2,-9,-26,13,-4092
488250450,0,5,-5,-8,-13,11,-4093
488251450,0,3,-1,-8,-14,5,-4118
488252450,0,4,-4,-6,-7,2,-4103
488253450,0,5,-10,-13,-17,11,-4091
488254450,0,0,-3,-4,-14,6,-4089
488255450,0,12,-8,-10,-26,4,-4094
488256450,0,4,-1,-3,-19,10,-4100
488257450,0,3,-4,-7,-5,3,-4087
488258450,0,3,-3,-2,-13,3,-4090
488259450,0,4,-2,-2,-26,4,-4070
488260450,0,6,-3,-5,-9,3,-4078
488261450,0,3,-6,-3,-33,21,-4093
488262450,0,4,-2,-3,-29,12,-4096
488263450,0,-1,-3,-7,-18,14,-4084
488264450,0,7,-6,-8,-13,1,-4103
488265450,0,7,-1,-8,-17,11,-4089
488266450,0,7,-5,-8,0,-5,-4090
488267450,0,0,-6,-5,-5,-2,-4085
488268450,0,3,-4,-12,-22,4,-4101
488269450,0,3,-7,-10,-40,4,-4103
488270450,0,3,-1,1,-11,8,-4092
488271450,0,7,-8,-5,-11,18,-4082
488272450,0,5,-3,-5,-12,4,-4079
488273450,0,6,1,-7,-12,9,-4085
488274450,0,5,-7,-9,-11,5,-4087
488275450,0,2,-6,-6,-20,11,-4095
488276450,0,4,-5,-2,-29,9,-4097
488277450,0,4,-6,-6,-26,12,-4105
488278450,0,3,0,0,-8,2,-4092
488279450,0,0,-5,-10,-15,16,-4086
488280450,0,4,-6,-5,-30,13,-4099
488281450,0,-2,-4,-7,-22,6,-4088
488282450,0,2,-6,-5,-12,20,-4091
488283450,0,1,1,-4,-18,26,-4090
488284450,0,5,-2,-1,-18,0,-4092
488285450,0,8,-6,-8,-7,-3,-4087
488286450,0,-1,-2,-6,-3,17,-4070
488287450,0,6,-6,-5,-4,13,-4087
488288450,0,5,-5,-11,-10,21,-4083
488289450,0,5,-2,-8,-18,13,-4099
488290450,0,6,-5,-9,-7,10,-4085
488291450,0,8,-2,-10,-12,11,-4085
488292450,0,4,0,-10,-14,20,-4088
488293450,0,2,-11,-6,-24,-6,-4088
488294450,0,4,-9,-9,-18,10,-4099
488295450,0,3,-1,-4,-17,6,-4082
488296450,0,5,-2,-5,-21,26,-4103
488297450,0,8,-4,-6,-20,12,-4101
488298450,0,5,-6,-6,-20,3,-4107
488299450,0,5,-8,-6,-7,3,-4095
488300450,0,4,-1,-3,-14,2,-4093
488301450,0,5,-7,-8,-17,7,-4107
488302450,0,5,-2,-8,-29,13,-4106
488303450,0,7,-5,-7,-7,9,-4090
488304450,0,6,-1,-6,-23,3,-4090
488305450,0,3,-4,-14,-12,15,-4098
488306450,0,1,-4,-15,-10,23,-4095
488307450,0,5,-4,-7,-25,5,-4103
488308450,0,10,-5,-5,-9,2,-4101
488309450,0,5,-3,-8,-6,5,-4091
488310450,0,7,-4,-9,-24,16,-4099
488311450,0,1,-11,-4,-19,8,-4102
488312450,0,7,-7,-3,-22,-1,-4096
488313450,0,2,1,-5,-6,5,-4091
488314450,0,4,-4,-9,-7,10,-4087
488315450,0,6,-3,-9,-40,14,-4089
488316450,0,4,-4,-8,-19,2,-4093
488317450,0,0,-5,-6,-18,18,-4099
488318450,0,2,1,-2,-9,10,-4085
488319450,0,9,-12,-8,-21,3,-4105
488320450,0,7,-1,-6,-14,13,-4099
488321450,0,1,-4,-5,-16,28,-4077
488322450,0,6,1,-8,-27,7,-4103
488323450,0,2,-3,-5,-15,15,-4092
488324450,0,7,-2,-4,-14,0,-4107
488325450,0,7,-5,-4,-8,9,-4095
488326450,0,-1,-10,-2,-26,7,-4083
488327450,0,2,-6,-8,-17,3,-4077
488328450,0,1,-6,-7,-18,3,-4090
488329450,0,6,-3,-4,-18,6,-4085
488330450,0,6,-6,-7,-8,8,-4094
488331450,0,4,-8,-9,-11,0,-4080
488332450,0,-1,-6,-5,-6,17,-4097
488333450,0,3,-1,-7,-20,4,-4087
488334450,0,4,-1,-6,-7,5,-4073
488335450,0,5,-6,-10,-34,20,-4070
488336450,0,6,-2,-9,-26,16,-4075
488337450,0,0,-5,-7,-14,0,-4080
488338450,0,5,-8,-5,-3,0,-4092
488339450,0,4,-1,-5,-14,-5,-4087
488340450,0,2,-7,-9,-22,18,-4094
488341450,0,9,-3,-8,-8,16,-4096
488342450,0,7,-3,-9,-11,-7,-4105
488343450,0,2,-4,-5,-18,17,-4090
488344450,0,5,0,-6,-19,11,-4088
488345450,0,6,-6,-8,-20,17,-4078
488346450,0,10,-6,-4,-1,13,-4087
488347450,0,3,1,-6,-9,3,-4080
488348450,0,10,-11,-8,-19,14,-4088
488349450,0,4,-2,-4,-31,7,-4083
488350450,0,6,-2,-7,-4,12,-4094
488351450,0,4,-7,-6,-15,9,-4091
488352450,0,-1,-5,-8,-20,11,-4086
488353450,0,4,-4,-6,-9,33,-4107
488354450,0,4,-5,-5,-6,1,-4092
488355450,0,4,2,-8,-9,5,-4115
488356450,0,2,-5,-5,-8,5,-4099
488357450,0,4,-5,-7,-17,17,-4096
488358450,0,2,-4,-10,-24,12,-4096
488359450,0,6,-3,-7,-25,12,-4100
488360450,0,0,-3,-4,-15,6,-4094
488361450,0,6,1,-8,-20,4,-4086
488362450,0,2,-3,-11,-8,19,-4101
488363450,0,8,-3,-12,-7,2,-4095
488364450,0,6,1,-11,-4,-2,-4090
488365450,0,6,-4,-11,-30,12,-4099
488366450,0,1,-1,-11,-2,6,-4103
488367450,0,6,-6,-7,-23,5,-4095
488368450,0,4,3,-7,-18,10,-4093
488369450,0,5,-3,-6,-8,3,-4085
488370450,0,9,-6,-4,-27,0,-4074
488371450,0,1,-6,-9,8,1,-4099
488372450,0,3,-5,-7,-22,15,-4082
488373450,0,-2,-3,-7,-18,8,-4089
488374450,0,6,-2,-5,-13,-5,-4087
488375450,0,8,-7,-6,-12,-2,-4088
488376450,0,2,-4,-2,-16,-1,-4093
488377450,0,9,-8,-6,-23,-1,-4091
488378450,0,5,-8,-8,-8,12,-4086
488379450,0,9,-5,-6,-20,14,-4093
488380450,0,-1,-8,-8,-6,1,-4099
488381450,0,5,-3,-7,-2,26,-4093
488382450,0,4,-1,-5,-13,10,-4093
488383450,0,5,-6,-10,-29,8,-4088
488384450,0,3,-4,-10,-18,-1,-4091
488385450,0,2,-4,-6,-14,10,-4101
488386450,0,3,-3,-9,-7,6,-4090
488387450,0,-1,-4,-8,-17,11,-4097
488388450,0,10,-8,-8,-10,10,-4080
488389450,0,-1,-3,-4,-27,13,-4094
488390450,0,4,-5,-2,-29,21,-4094
488391450,0,6,-5,-6,-27,9,-4110
488392450,0,2,-3,-9,-20,7,-4100
488393450,0,1,0,-6,-8,-6,-4077
488394450,0,3,0,-11,-7,2,-4084
488395450,0,3,-2,-4,-30,13,-4073
488396450,0,4,-4,-8,-26,16,-4087
488397450,0,10,-5,-9,-11,5,-4091
488398450,0,13,-2,-6,-4,-1,-4095
488399450,0,8,-9,-9,-7,7,-4102
488400450,0,3,2,-5,-22,6,-4092
488401450,0,1,-5,-9,-16,32,-4090
488402450,0,2,-3,-8,-5,13,-4093
488403450,0,4,-2,-7,-7,4,-4094
488404450,0,1,-3,-8,-4,8,-4091
488405450,0,2,-1,-6,-21,-3,-4082
488406450,0,5,3,-7,-21,15,-4085
488407450,0,0,-4,-12,-20,2,-4096
488408450,0,6,-3,-11,-17,15,-4096
488409450,0,-1,-6,-6,-16,-3,-4099
488410450,0,1,-8,-2,-23,19,-4095
488411450,0,7,0,-11,-8,19,-4107
488412450,0,5,-2,-7,-12,-1,-4072
488413450,0,5,-8,-5,-1,4,-4091
488414450,0,2,0,-4,-26,2,-4087
488415450,0,3,-5,-4,-30,-5,-4090
488416450,0,6,-5,-5,-14,8,-4084
488417450,0,3,-6,-8,-29,14,-4075
488418450,0,1,-2,-9,-12,6,-4102
488419450,0,2,-1,-2,-13,7,-4095
488420450,0,8,-5,-5,-16,3,-4104
488421450,0,3,-3,-7,-26,8,-4096
488422450,0,3,-1,-5,-11,-6,-4105
488423450,0,9,-7,-11,-17,24,-4094
488424450,0,4,-3,-4,-14,13,-4102
488425450,0,6,-5,-10,-9,8,-4098
488426450,0,8,0,-6,-21,4,-4078
488427450,0,5,-2,-8,-16,8,-4098
488428450,0,5,-5,-9,-17,4,-4096
488429450,0,7,-5,-7,-10,4,-4099
488430450,0,4,-7,-7,-20,9,-4082
488431450,0,8,-11,-11,-9,15,-4094
488432450,0,5,1,-7,-15,25,-4090
488433450,0,2,0,-10,-4,16,-4092
488434450,0,4,-2,-4,-18,3,-4085
488435450,0,4,-1,-3,-8,6,-4100
488436450,0,8,-3,-8,-8,12,-4073
488437450,0,4,-2,-8,-22,7,-4087
488438450,0,11,-6,-8,-16,-2,-4095
488439450,0,6,-7,-7,0,13,-4102
488440450,0,8,-2,-4,-11,13,-4091
488441450,0,6,-4,-4,-28,-1,-4092
488442450,0,6,-2,-10,-21,18,-4102
488443450,0,2,-3,-6,-13,17,-4096
488444450,0,1,-3,-3,-5,15,-4081
488445450,0,6,0,-6,-8,11,-4089
488446450,0,4,-5,-5,-7,19,-4083
488447450,0,10,-5,-6,-24,16,-4091
488448450,0,5,-2,-5,-19,14,-4080
488449450,0,4,-5,-7,-13,11,-4096
488450450,0,0,-5,-7,-17,15,-4087
488451450,0,3,-1,-3,-1,12,-4069
488452450,0,9,-3,-8,-7,20,-4083
488453450,0,5,-3,-5,-21,-5,-4087
488454450,0,2,-6,-10,-23,11,-4092
488455450,0,1,-9,-10,-16,14,-4086
488456450,0,3,2,-7,-22,7,-4097
488457450,0,10,-8,-6,-19,2,-4091
488458450,0,5,-2,-5,-15,-7,-4096
488459450,0,8,0,-5,-15,-4,-4089
488460450,0,0,-1,-9,-13,9,-4090
488461450,0,6,-4,-3,-17,15,-4093
488462450,0,6,-6,-8,-11,3,-4090
488463450,0,3,-6,-7,-16,21,-4094
488464450,0,3,-2,-6,-9,12,-4084
488465450,0,4,-4,-4,-27,11,-4110
488466450,0,1,-4,-9,-16,0,-4096
488467450,0,7,-2,-7,-16,4,-4097
488468450,0,0,-3,-9,-9,4,-4098
488469450,0,-4,2,-5,-29,3,-4099
488470450,0,0,-5,-11,-9,15,-4094
488471450,0,7,0,-13,-26,4,-4102
488472450,0,8,-1,-6,-9,8,-4089
488473450,0,1,-2,-11,-16,4,-4098
488474450,0,6,-6,-7,-16,7,-4104
488475450,0,9,-3,-11,-17,3,-4093
488476450,0,6,-5,-8,-16,4,-4080
488477450,0,9,-3,-5,-5,8,-4090
488478450,0,1,-4,-5,-12,-1,-4088
488479450,0,3,-5,-8,-27,-6,-4089
488480450,0,7,1,-4,-26,-1,-4088
488481450,0,1,-3,-4,-16,-4,-4104
488482450,0,9,-6,-5,-20,-4,-4099
488483450,0,2,2,0,-30,3,-4093
488484450,0,7,-5,-8,-21,11,-4074
488485450,0,3,4,-8,-12,16,-4096
488486450,0,6,-7,-9,-9,17,-4098
488487450,0,3,-4,-7,-25,10,-4088
488488450,0,1,-3,-8,-25,8,-4083
488489450,0,3,-8,-4,-15,-2,-4086
488490450,0,1,0,-8,-18,12,-4081
488491450,0,3,-2,-5,-5,3,-4094
488492450,0,5,-5,-8,-25,6,-4086
488493450,0,3,2,-6,-23,3,-4090
488494450,0,8,-11,-9,-16,13,-4064
488495450,0,3,-1,1,-17,8,-4078
488496450,0,3,0,-3,-3,19,-4080
488497450,0,8,-9,-8,-17,13,-4089
488498450,0,6,-4,-12,2,7,-4083
488499450,0,0,-4,-11,-24,17,-4095
488500450,0,0,-3,-11,-11,19,-4079
488501450,0,-3,1,-11,-11,11,-4081
488502450,0,7,-5,-9,-29,3,-4088
488503450,0,5,1,-8,-21,15,-4091
488504450,0,10,1,-14,-17,9,-4095
488505450,0,5,-5,-8,-22,12,-4092
488506450,0,6,-3,-8,-3,1,-4076
488507450,0,9,-4,-9,-20,6,-4090
488508450,0,1,-6,-11,-13,6,-4099
488509450,0,-1,-7,-6,-24,17,-4099
488510450,0,0,0,-6,-13,20,-4095
488511450,0,5,-10,-7,-14,12,-4077
488512450,0,4,-4,-8,-7,3,-4105
488513450,0,6,-10,-8,-14,20,-4097
488514450,0,9,-8,-10,-2,24,-4091
488515450,0,2,-1,-4,-18,11,-4090
488516450,0,5,-6,-5,-4,6,-4101
488517450,0,5,-2,-4,-11,16,-4096
488518450,0,1,-7,-7,-8,15,-4093
488519450,0,8,-4,-4,-18,6,-4090
488520450,0,6,-1,-3,-30,18,-4098
488521450,0,5,-6,-7,-16,2,-4087
488522450,0,8,-8,-10,0,9,-4092
488523450,0,0,-2,-7,0,4,-4083
488524450,0,5,-5,-8,-18,15,-4082
488525450,0,4,-1,-6,-18,9,-4082
488526450,0,9,-6,-12,-20,15,-4089
488527450,0,6,-5,-7,-15,-3,-4103
488528450,0,6,3,-8,-6,6,-4089
488529450,0,3,-3,-8,-14,14,-4087
488530450,0,2,-4,-6,-5,0,-4082
488531450,0,3,-3,-7,-24,7,-4090
488532450,0,6,-5,-1,-9,3,-4086
488533450,0,1,1,0,-5,1,-4075
488534450,0,5,1,-3,-18,7,-4085
488535450,0,6,-2,-4,-36,-1,-4092
488536450,0,6,1,-10,-19,-7,-4092
488537450,0,6,-6,-7,-21,4,-4085
488538450,0,2,-4,-10,-25,9,-4098
488539450,0,3,-3,-8,-10,12,-4090
488540450,0,2,-5,-8,-12,9,-4090
488541450,0,3,-6,-7,-17,12,-4076
488542450,0,3,-6,-5,-23,-2,-4090
488543450,0,9,-7,-9,-22,3,-4099
488544450,0,2,-3,-1,-8,15,-4088
488545450,0,11,-5,-10,-5,6,-4079
488546450,0,7,-3,-7,-21,17,-4079
488547450,0,4,-4,-4,-19,10,-4092
488548450,0,8,-6,-9,-9,14,-4089
488549450,0,3,-5,-5,-17,14,-4094
488550450,0,4,-5,-4,-8,11,-4097
488551450,0,1,-5,-5,-1,4,-4095
488552450,0,3,-10,-6,-4,7,-4099
488553450,0,5,-9,-10,-12,16,-4082
488554450,0,2,-6,-5,-10,25,-4077
488555450,0,3,-7,-4,-24,11,-4093
488556450,0,2,-7,-4,-29,14,-4099
488557450,0,6,1,-9,0,18,-4088
488558450,0,4,-9,-2,-23,20,-4100
488559450,0,1,-1,-2,-32,4,-4086
488560450,0,6,-1,-4,-24,13,-4090
488561450,0,4,-3,-7,-22,11,-4093
488562450,0,6,1,-9,-18,15,-4082
488563450,0,8,-3,-9,-6,2,-4082
488564450,0,1,-3,-10,-25,12,-4089
488565450,0,2,2,-8,-15,14,-4091
488566450,0,7,-7,-9,-10,23,-4086
488567450,0,4,0,-7,-22,5,-4097
488568450,0,3,-3,-8,-24,-12,-4077
488569450,0,5,-7,-8,-17,12,-4086
488570450,0,6,-8,-9,-18,4,-4079
488571450,0,11,-7,-11,-28,7,-4080
488572450,0,1,-2,-4,-14,7,-4086
488573450,0,3,-1,-10,-15,-3,-4080
488574450,0,4,-6,-3,-16,0,-4082
488575450,0,6,-4,-5,-10,10,-4090
488576450,0,4,-1,-5,-14,16,-4112
488577450,0,2,-4,-8,-21,2,-4115
488578450,0,5,-7,-9,-9,2,-4103
488579450,0,6,-3,-6,-6,0,-4098
488580450,0,11,-6,-6,-20,12,-4090
488581450,0,2,1,-5,-17,0,-4112
488582450,0,6,-5,-4,-19,8,-4105
488583450,0,4,-3,-6,-10,-10,-4100
488584450,0,1,-2,-7,-23,4,-4083
488585450,0,3,-6,-9,-13,-4,-4108
488586450,0,2,-4,-6,-16,-15,-4097
488587450,0,0,-4,-5,-12,-1,-4099
488588450,0,5,-7,-6,-30,13,-4101
488589450,0,7,-5,-9,-19,-1,-4094
488590450,0,10,-4,-7,-27,21,-4087
488591450,0,-3,-1,-4,-27,13,-4096
488592450,0,4,-3,-8,-20,20,-4092
488593450,0,2,-10,-11,-20,13,-4097
488594450,0,5,2,-5,-8,6,-4088
488595450,0,4,-5,-7,-17,6,-4081
488596450,0,-2,-5,-6,-24,3,-4091
488597450,0,-2,-3,-7,-7,0,-4087
488598450,0,8,-8,-6,-4,22,-4082
488599450,0,4,-5,-7,-12,5,-4067
488600450,0,5,-7,-7,-12,7,-4079
488601450,0,2,-6,-7,-15,4,-4079
488602450,0,3,-2,-5,-15,7,-4086
488603450,0,1,1,-2,-21,2,-4092
488604450,0,1,-2,-5,-13,-9,-4088
488605450,0,5,-2,-4,-26,8,-4090
488606450,0,4,0,-4,-19,10,-4097
488607450,0,2,-6,-4,-11,22,-4070
488608450,0,5,6,3,-1,14,-4093
488609450,0,6,-4,-5,-15,14,-4080
488610450,0,6,-6,-8,-17,9,-4105
488611450,0,8,-4,-7,-10,13,-4112
488612450,0,1,-8,-8,-22,2,-4098
488613450,0,4,-4,-3,-20,-4,-4118
488614450,0,6,-5,-10,-22,6,-4097
488615450,0,2,-2,-9,-20,4,-4096
488616450,0,10,-5,-13,-14,1,-4092
488617450,0,0,-4,-6,-7,7,-4089
488618450,0,0,0,-8,-30,6,-4077
488619450,0,2,-3,-12,-20,24,-4087
488620450,0,2,1,-4,-18,14,-4092
488621450,0,3,-3,-5,-13,12,-4088
488622450,0,5,-1,-9,-27,15,-4086
488623450,0,9,-1,-3,-7,-4,-4091
488624450,0,3,-4,-7,-6,13,-4105
488625450,0,6,-10,-6,-10,4,-4091
488626450,0,1,-3,-6,-17,4,-4091
488627450,0,9,-4,-11,-7,6,-4099
488628450,0,10,-5,-13,-33,3,-4094
488629450,0,1,-4,-8,-25,8,-4081
488630450,0,0,-4,-8,-32,-7,-4081
488631450,0,5,-3,-13,-20,-2,-4098
488632450,0,2,-5,-12,-15,4,-4090
488633450,0,4,-8,-7,-20,3,-4096
488634450,0,6,4,-3,-22,1,-4094
488635450,0,5,-1,-2,-21,14,-4097
488636450,0,2,1,-9,-27,10,-4098
488637450,0,3,-5,-13,-26,22,-4106
488638450,0,-5,3,-3,-12,2,-4099
488639450,0,9,-6,-4,-18,13,-4097
488640450,0,4,-1,-7,-18,6,-4107
488641450,0,7,-7,-3,-12,-7,-4092
488642450,0,8,-4,-4,-23,-9,-4082
488643450,0,-4,-7,-10,-32,6,-4099
488644450,0,8,-7,-9,-16,0,-4087
488645450,0,3,1,-10,2,-1,-4091
488646450,0,3,-4,-7,-11,10,-4091
488647450,0,-2,-1,-10,-26,13,-4082
488648450,0,1,-5,-8,-26,8,-4077
488649450,0,9,-8,-8,10,23,-4084
488650450,0,2,-4,-8,-6,16,-4077
488651450,0,2,-2,-7,-17,24,-4103
488652450,0,5,-6,-11,-26,18,-4086
488653450,0,10,-5,-9,-18,7,-4091
488654450,0,6,-7,-6,-23,7,-4105
488655450,0,4,-6,-6,-9,-10,-4062
488656450,0,1,-3,-6,-20,-14,-4082
488657450,0,6,-9,-7,-21,-2,-4074
488658450,0,1,-2,-4,-29,1,-4088
488659450,0,1,-1,-3,-1,7,-4074
488660450,0,6,-5,-8,-2,22,-4075
488661450,0,6,1,-8,-7,14,-4090
488662450,0,6,-6,-6,-13,15,-4093
488663450,0,1,1,-4,-11,0,-4090
488664450,0,1,-1,-6,-8,16,-4102
488665450,0,0,-3,-9,-7,-4,-4089
488666450,0,9,1,-8,-20,0,-4105
488667450,0,4,-9,-8,-16,8,-4087
488668450,0,4,-4,-7,-28,4,-4081
488669450,0,4,-5,-6,-27,11,-4089
488670450,0,1,-4,-11,-31,9,-4083
488671450,0,4,-6,-8,-23,-1,-4087
488672450,0,4,-2,-6,-15,0,-4071
488673450,0,3,-4,-8,-9,18,-4101
488674450,0,3,-1,-5,-6,21,-4079
488675450,0,6,-3,-7,-12,23,-4093
488676450,0,1,-9,-1,-11,16,-4105
488677450,0,2,0,-6,-11,12,-4118
488678450,0,-2,-12,-7,-18,11,-4107
488679450,0,2,-3,-9,-26,1,-4094
488680450,0,5,-1,-3,-42,-3,-4095
488681450,0,4,-4,-12,-31,6,-4100
488682450,0,5,-1,-12,-52,-3,-4098
488683450,0,1,-1,-10,-4,13,-4092
488684450,0,3,-4,-11,-31,9,-4078
488685450,0,4,-4,-9,-13,30,-4082
488686450,0,10,-4,-9,-14,0,-4091
488687450,0,7,-2,-5,-8,11,-4082
488688450,0,6,-2,-6,-10,21,-4086
488689450,0,5,-2,-4,-9,4,-4074
488690450,0,-1,-4,-8,-5,9,-4094
488691450,0,5,-7,-6,-12,9,-4086
488692450,0,8,-9,-12,-3,-4,-4083
488693450,0,4,1,-4,1,11,-4085
488694450,0,4,-9,-9,-22,3,-4087
488695450,0,5,-5,-6,-14,7,-4111
488696450,0,4,-3,-11,-25,-10,-4093
488697450,0,-2,-2,-10,-26,-14,-4081
488698450,0,2,-4,-8,-40,10,-4089
488699450,0,4,-5,-7,-30,1,-4085
488700450,0,-3,-2,-3,-33,11,-4097
488701450,0,3,-1,-6,-7,30,-4086
488702450,0,5,-9,-6,-4,28,-4081
488703450,0,2,-4,-5,-1,25,-4085
488704450,0,4,-7,-6,-8,33,-4082
488705450,0,6,-6,-7,-21,15,-4084
488706450,0,5,-3,-4,-28,19,-4062
488707450,0,2,-4,-3,-23,6,-4090
488708450,0,5,-1,-6,-27,11,-4093
488709450,0,9,-2,-9,-19,-3,-4075
488710450,0,1,-4,-7,-12,-6,-4102
488711450,0,6,0,-8,-28,-3,-4075
488712450,0,6,-2,-5,-22,20,-4097
488713450,0,8,-6,-10,-18,4,-4085
488714450,0,-1,-8,-12,-10,10,-4098
488715450,0,3,-10,-8,-19,15,-4082
488716450,0,1,-5,-11,-8,30,-4086
488717450,0,2,-7,-7,-8,13,-4080
488718450,0,1,-4,-8,1,19,-4087
488719450,0,4,-3,-5,-17,11,-4088
488720450,0,11,-2,-12,-15,0,-4088
488721450,0,4,-8,-10,-22,1,-4092
488722450,0,6,-3,-8,-26,-2,-4106
488723450,0,4,-7,-8,-34,5,-4073
488724450,0,8,-4,-2,-16,9,-4095
488725450,0,2,0,-4,-12,2,-4088
488726450,0,5,-5,-4,-2,4,-4090
488727450,0,6,1,-6,-19,19,-4078
488728450,0,-1,0,-2,-5,7,-4083
488729450,0,-1,3,-5,-25,16,-4091
488730450,0,6,1,-7,-11,18,-4083
488731450,0,6,-9,-11,1,10,-4084
488732450,0,2,-6,-7,5,13,-4093
488733450,0,6,-5,-3,-10,15,-4102
488734450,0,9,-6,-3,0,18,-4103
488735450,0,0,0,-8,0,28,-4094
488736450,0,8,-5,-4,-12,13,-4110
488737450,0,6,-3,-4,-14,12,-4107
488738450,0,7,-4,-6,-34,1,-4100
488739450,0,7,-3,-7,-36,7,-4114
488740450,0,0,-3,-3,-37,-6,-4112
488741450,0,5,-4,-7,-6,-7,-4121
488742450,0,4,-3,-12,-20,0,-4081
488743450,0,-7,-1,-9,-29,7,-4101
488744450,0,6,-2,-9,-17,15,-4090
488745450,0,6,0,-6,-15,22,-4080
488746450,0,2,-5,-6,-14,30,-4094
488747450,0,8,-7,-6,-4,18,-4068
488748450,0,3,-3,-4,-5,13,-4078
488749450,0,3,-5,0,-5,2,-4092
488750450,0,8,-5,-3,-20,-4,-4102
488751450,0,-1,3,-5,-8,-9,-4054
488752450,0,4,-5,-9,-19,-4,-4068
488753450,0,8,-8,-6,-5,-4,-4084
488754450,0,-2,3,-2,3,-3,-4074
488755450,0,5,-7,-8,-10,3,-4075
488756450,0,5,-4,-6,6,15,-4080
488757450,0,3,1,-5,8,21,-4093
488758450,0,8,-7,-10,-3,0,-4097
488759450,0,3,-3,-4,-10,-4,-4081
488760450,0,7,-4,-4,-13,5,-4094
488761450,0,4,-2,-6,-10,-4,-4102
488762450,0,0,2,-3,-10,11,-4099
488763450,0,12,-3,-9,-14,-8,-4101
488764450,0,4,-2,-4,-36,-1,-4098
488765450,0,5,-5,-5,-30,0,-4084
488766450,0,9,-3,-6,-32,13,-4093
488767450,0,1,-4,-9,-34,12,-4078
488768450,0,3,-10,-6,-7,35,-4083
488769450,0,3,-7,-5,3,29,-4078
488770450,0,-3,-1,-7,-14,17,-4075
488771450,0,7,-2,-5,-13,16,-4091
488772450,0,4,0,-8,-4,12,-4100
488773450,0,5,-1,-11,-27,18,-4083
488774450,0,7,-3,-5,-9,13,-4085
488775450,0,6,-2,-11,-9,7,-4089
488776450,0,2,-6,-9,6,9,-4074
488777450,0,5,-1,-9,-8,4,-4070
488778450,0,1,-3,-8,-7,4,-4076
488779450,0,-1,-10,-7,3,6,-4081
488780450,0,0,-1,-2,-20,5,-4080
488781450,0,8,-6,-3,-16,-13,-4070
488782450,0,9,-10,-10,-18,3,-4099
488783450,0,7,-4,-9,-12,6,-4097
488784450,0,6,-4,-7,4,-10,-4100
488785450,0,10,-8,-10,-6,9,-4100
488786450,0,4,-4,-5,-15,0,-4099
488787450,0,2,-7,-12,-19,7,-4112
488788450,0,1,-1,-7,-21,10,-4100
488789450,0,7,-7,-9,-11,22,-4104
488790450,0,11,-7,-5,-23,16,-4098
488791450,0,3,1,-7,-26,5,-4086
488792450,0,10,-5,-6,-6,-11,-4099
488793450,0,3,-2,-5,-19,-4,-4098
488794450,0,8,-3,-7,-45,3,-4102
488795450,0,4,-10,-9,-26,3,-4080
488796450,0,2,-1,-5,-17,9,-4098
488797450,0,8,-6,-10,-8,14,-4087
488798450,0,3,-4,-6,-6,28,-4099
488799450,0,-3,-3,-6,-15,26,-4095
488800450,0,9,-9,-11,-11,21,-4094
488801450,0,8,-9,-9,-3,7,-4094
488802450,0,1,-3,-4,-30,19,-4097
488803450,0,8,-8,-6,-23,4,-4090
488804450,0,0,-2,-6,-13,7,-4094
488805450,0,6,-6,-4,-23,16,-4081
488806450,0,5,-2,-8,-15,-3,-4090
488807450,0,0,-2,0,-14,9,-4080
488808450,0,8,-3,-10,-10,0,-4088
488809450,0,1,-3,-6,-7,11,-4074
488810450,0,6,-2,-5,-8,2,-4077
488811450,0,4,-4,-4,-2,13,-4090
488812450,0,0,-3,-5,-12,8,-4087
488813450,0,7,-5,-7,8,8,-4070
488814450,0,9,-8,-6,-14,-1,-4087
488815450,0,3,-2,-6,-11,12,-4076
488816450,0,5,0,-7,-10,12,-4093
488817450,0,3,0,-9,2,9,-4091
488818450,0,3,-6,-9,-15,6,-4089
488819450,0,8,-2,-4,-10,21,-4098
488820450,0,4,-1,-8,-23,4,-4100
488821450,0,6,-3,-10,-30,18,-4108
488822450,0,9,-5,-9,-26,4,-4097
488823450,0,2,1,-6,-38,10,-4098
488824450,0,2,-2,-5,-39,-5,-4100
488825450,0,6,0,-4,-52,10,-4082
488826450,0,3,-1,-8,-40,16,-4098
488827450,0,6,-4,-9,-21,9,-4092
488828450,0,5,1,-7,-8,15,-4088
488829450,0,2,1,-5,-11,14,-4094
488830450,0,5,-1,-2,-4,16,-4085
488831450,0,1,1,-2,-10,22,-4086
488832450,0,5,-9,-9,-17,26,-4106
488833450,0,7,-9,-6,-7,20,-4094
488834450,0,6,-7,-6,-22,15,-4101
488835450,0,11,-7,-10,-11,-4,-4104
488836450,0,3,-8,-4,-22,-15,-4082
488837450,0,3,-7,-8,-21,1,-4082
488838450,0,3,-4,-7,-16,-2,-4077
488839450,0,6,0,-6,-9,16,-4080
488840450,0,7,-6,-6,-35,-7,-4082
488841450,0,4,-6,-5,0,13,-4078
488842450,0,1,-1,-7,-2,14,-4096
488843450,0,7,-7,-13,-7,15,-4094
488844450,0,1,0,-10,-11,16,-4105
488845450,0,6,-5,-7,-9,3,-4095
488846450,0,6,-3,-7,-20,-5,-4102
488847450,0,4,-3,-6,-24,4,-4091
488848450,0,4,-5,-6,-8,2,-4087
488849450,0,5,-7,-4,-8,-5,-4088
488850450,0,5,-6,-6,-26,3,-4084
488851450,0,5,-4,-6,-23,-5,-4083
488852450,0,6,-4,-14,-26,12,-4066
488853450,0,7,-3,-5,-4,1,-4080
488854450,0,3,-1,-8,-6,9,-4088
488855450,0,8,-6,-9,-9,17,-4072
488856450,0,6,-13,-12,-17,20,-4101
488857450,0,5,-3,-4,-11,16,-4104
488858450,0,4,-7,-9,-18,13,-4096
488859450,0,7,-8,-8,-16,27,-4087
488860450,0,3,-2,-5,-31,17,-4092
488861450,0,2,-2,-6,-13,-4,-4093
488862450,0,-1,-7,-6,-6,-5,-4108
488863450,0,2,-5,-6,-26,11,-4096
488864450,0,5,-9,-11,-47,2,-4087
488865450,0,5,0,-9,-21,-4,-4096
488866450,0,2,1,-13,-17,11,-4103
488867450,0,4,-1,-9,-25,14,-4098
488868450,0,2,-2,-11,-8,14,-4114
488869450,0,8,-6,-12,-22,15,-4104
488870450,0,6,0,-3,-27,9,-4105
488871450,0,-1,-3,-6,-22,19,-4111
488872450,0,9,-11,-9,-40,3,-4084
488873450,0,5,-5,-6,-34,11,-4079
488874450,0,0,-2,-5,-34,20,-4074
488875450,0,5,-7,-9,-41,-2,-4067
488876450,0,1,6,-4,-31,17,-4049
488877450,0,2,-8,-4,-10,15,-4054
488878450,0,2,-2,-2,-18,13,-4051
488879450,0,2,2,-5,-1,16,-4042
488880450,0,4,-1,-8,2,20,-4048
488881450,0,3,-8,-4,13,27,-4058
488882450,0,5,-5,-5,20,8,-4078
488883450,0,5,-9,-6,27,-2,-4069
488884450,0,8,-5,-5,23,1,-4091
488885450,0,3,0,-5,8,1,-4089
488886450,0,3,-4,-6,0,13,-4084
488887450,0,7,-3,-2,-12,-5,-4111
488888450,0,8,-8,-8,-11,-19,-4110
488889450,0,3,-10,-14,-26,-8,-4137
488890450,0,4,-1,-5,-30,0,-4127
488891450,0,3,-9,-6,-35,0,-4122
488892450,0,2,0,-9,-26,9,-4149
488893450,0,1,-6,-8,-38,36,-4127
488894450,0,6,-6,-9,-34,15,-4124
488895450,0,0,0,-4,-41,19,-4135
488896450,0,4,-1,-4,-40,20,-4136
488897450,0,4,-1,-10,-40,17,-4118
488898450,0,4,-7,-4,-32,17,-4108
488899450,0,1,-1,-2,-14,29,-4104
488900450,0,0,1,1,-24,5,-4096
488901450,0,2,-2,-6,-23,-2,-4081
488902450,0,4,-8,-4,-15,-11,-4065
488903450,0,-1,3,0,-16,-6,-4068
488904450,0,2,-7,-1,1,0,-4063
488905450,0,-3,-4,-8,-1,-13,-4052
488906450,0,5,-5,-9,15,3,-4053
488907450,0,-2,-10,-6,4,11,-4070
488908450,0,1,0,-6,12,12,-4070
488909450,0,3,-8,-5,11,-11,-4053
488910450,0,-2,-5,-7,6,1,-4072
488911450,0,4,-9,-5,5,-5,-4068
488912450,0,8,-4,-3,-10,9,-4082
488913450,0,2,-5,-3,-27,2,-4083
488914450,0,5,-5,-6,-12,1,-4091
488915450,0,8,-7,-9,-11,-5,-4094
488916450,0,3,-3,-10,-35,5,-4109
488917450,0,4,-6,-9,-23,-11,-4100
488918450,0,5,-3,-6,-17,4,-4110
488919450,0,1,-5,-4,-24,11,-4088
488920450,0,8,-1,-12,-21,9,-4090
488921450,0,-2,-1,-5,-11,22,-4092
488922450,0,6,0,-14,-10,29,-4105
488923450,0,10,-4,-10,-6,38,-4098
488924450,0,5,2,-5,-13,32,-4111
488925450,0,7,-9,-1,-13,42,-4105
488926450,0,0,-9,-4,-18,22,-4096
488927450,0,5,-6,-10,-20,25,-4104
488928450,0,3,-9,-8,-30,10,-4097
488929450,0,6,-3,-10,-22,12,-4091
488930450,0,4,-4,-5,-20,0,-4099
488931450,0,5,-3,-6,-23,8,-4086
488932450,0,5,-3,-8,-18,12,-4096
488933450,0,-1,-5,-8,-28,23,-4092
488934450,0,1,-2,-5,-16,6,-4097
488935450,0,2,-3,-8,-10,10,-4095
488936450,0,6,-8,-8,-10,11,-4088
488937450,0,0,3,-1,-7,10,-4079
488938450,0,6,-9,-4,1,8,-4076
488939450,0,6,-7,-6,-14,-4,-4090
488940450,0,2,0,-3,-13,1,-4071
488941450,0,7,-9,-7,-3,16,-4067
488942450,0,7,-7,-8,-14,7,-4081
488943450,0,3,-7,-9,-1,-5,-4062
488944450,0,3,-3,-9,-18,14,-4096
488945450,0,4,-1,-4,-10,8,-4084
488946450,0,5,-5,-7,-14,-25,-4091
488947450,0,0,-3,-6,-25,-5,-4086
488948450,0,4,-2,-8,-25,20,-4077
488949450,0,7,-1,-9,-20,12,-4075
488950450,0,6,-5,-5,-29,11,-4100
488951450,0,7,0,-12,-20,0,-4102
488952450,0,6,-6,-6,-34,29,-4112
488953450,0,2,0,-6,-22,14,-4097
488954450,0,10,-3,-9,-36,9,-4113
488955450,0,5,-3,-4,-23,11,-4104
488956450,0,4,-3,-9,-12,30,-4113
488957450,0,7,-6,-6,-24,4,-4112
488958450,0,4,0,-10,-23,11,-4111
488959450,0,1,0,-6,-4,18,-4088
488960450,0,7,-1,-6,-22,-7,-4099
488961450,0,2,-2,-5,-21,12,-4096
488962450,0,3,-5,-5,-6,-8,-4073
488963450,0,-4,-5,-3,12,8,-4084
488964450,0,-1,-5,-7,-18,11,-4102
488965450,0,5,-8,-6,-5,9,-4095
488966450,0,0,-5,-8,-2,23,-4079
488967450,0,-4,-6,-7,-16,6,-4080
488968450,0,7,-7,-9,1,16,-4095
488969450,0,3,-1,-6,-2,24,-4098
488970450,0,4,-2,-9,3,0,-4089
488971450,0,1,-2,-9,-16,19,-4077
488972450,0,1,-1,-8,-33,15,-4106
488973450,0,6,-6,-7,-14,5,-4088
488974450,0,4,-2,-8,-27,-7,-4088
488975450,0,5,-1,-8,-30,8,-4083
488976450,0,2,-7,-11,-23,-2,-4089
488977450,0,8,3,-5,-14,18,-4070
488978450,0,4,-8,-4,-6,11,-4090
488979450,0,6,-9,-8,-32,22,-4073
488980450,0,6,-1,-5,-24,10,-4082
488981450,0,2,-7,-5,-13,4,-4100
488982450,0,8,-5,-7,-13,13,-4092
488983450,0,-2,1,-4,-28,17,-4096
488984450,0,5,-3,-8,-10,33,-4103
488985450,0,2,-5,-7,-14,-1,-4113
488986450,0,8,-2,-7,-17,4,-4112
488987450,0,4,-7,-9,-7,13,-4093
488988450,0,3,2,-9,-6,8,-4085
488989450,0,0,-4,-8,-14,4,-4095
488990450,0,1,4,-6,-19,3,-4086
488991450,0,7,-5,-8,-18,11,-4095
488992450,0,1,-9,-4,-25,10,-4083
488993450,0,-1,-6,-9,-16,3,-4082
488994450,0,7,-7,-9,-2,-2,-4090
488995450,0,-2,-3,-4,-21,14,-4072
488996450,0,5,-7,-7,-19,7,-4078
488997450,0,5,-8,-5,-8,11,-4088
488998450,0,5,0,2,-6,8,-4090
488999450,0,6,-3,-8,-13,-8,-4106
489000450,0,5,-3,-5,-6,-3,-4083
489001450,0,1,-3,-2,-26,6,-4101
489002450,0,0,-2,-6,-22,12,-4084
489003450,0,7,-9,-9,-14,9,-4091
489004450,0,-4,4,-5,-17,9,-4089
489005450,0,7,-8,-12,-15,17,-4109
489006450,0,7,-2,-5,1,0,-4093
489007450,0,-1,-9,-12,-22,11,-4089
489008450,0,0,8,-8,-20,8,-4088
489009450,0,3,0,-6,-14,15,-4086
489010450,0,8,-7,-10,-10,12,-4112
489011450,0,11,-6,-10,-20,0,-4107
489012450,0,4,-5,-14,-23,1,-4102
489013450,0,2,2,-9,-20,4,-4095
489014450,0,6,-5,-6,-1,2,-4089
489015450,0,4,-2,-5,-13,16,-4093
489016450,0,7,-3,-6,-19,9,-4100
489017450,0,6,0,-1,-10,2,-4100
489018450,0,6,-2,-5,1,10,-4101
489019450,0,4,-1,-7,4,11,-4077
489020450,0,2,-4,-6,-5,11,-4095
489021450,0,-1,-7,-10,-20,9,-4095
489022450,0,-3,-1,0,-6,-4,-4083
489023450,0,6,-3,-9,-10,9,-4107
489024450,0,6,-5,-7,-14,6,-4101
489025450,0,2,-6,-5,-8,24,-4084
489026450,0,8,-6,-3,-22,2,-4068
489027450,0,7,-3,-3,-10,12,-4093
489028450,0,3,3,0,-5,12,-4078
489029450,0,4,-5,-5,-18,-1,-4081
489030450,0,12,-4,-6,-13,-10,-4078
489031450,0,6,-6,-6,-5,1,-4076
489032450,0,4,-4,-5,-33,20,-4091
489033450,0,0,6,-5,-10,16,-4074
489034450,0,2,-4,-8,-3,0,-4087
489035450,0,7,-3,-9,-19,2,-4084
489036450,0,2,-3,-4,-1,11,-4086
489037450,0,6,-5,-9,-8,6,-4082
489038450,0,6,3,-4,-20,15,-4086
489039450,0,2,-4,-6,-1,8,-4091
489040450,0,7,3,-2,-19,-7,-4085
489041450,0,3,3,-4,-16,-10,-4088
489042450,0,3,-1,-6,-7,6,-4092
489043450,0,4,-3,-6,-25,13,-4094
489044450,0,3,0,-8,-28,7,-4090
489045450,0,6,-9,-6,-19,11,-4085
489046450,0,-2,-2,-7,-24,22,-4081
489047450,0,4,-1,-7,-13,3,-4094
489048450,0,6,-8,-10,2,14,-4101
489049450,0,1,-1,-7,-5,6,-4098
489050450,0,2,-6,-6,2,14,-4102
489051450,0,5,-4,-6,-8,10,-4086
489052450,0,1,0,-6,-21,11,-4088
489053450,0,7,-8,-9,-10,12,-4097
489054451,0,4,-5,-7,-8,15,-4086
489055452,0,4,-9,-5,-20,3,-4084
489056450,0,1,-10,-3,-12,9,-4103
489057450,0,3,1,-4,-14,-12,-4114
489058450,0,6,-6,-5,-12,-2,-4100
489059450,0,5,-5,-8,-19,8,-4104
489060450,0,4,-3,-10,-12,3,-4094
489061450,0,6,-3,-6,-33,1,-4098
489062450,0,7,1,-9,-15,21,-4097
489063450,0,4,-3,-5,-10,11,-4100
489064450,0,9,-6,-3,-18,-6,-4090
489065450,0,3,-4,-4,-15,-3,-4091
489066450,0,5,-5,-6,4,16,-4085
489067450,0,2,-5,-4,-11,12,-4083
489068450,0,4,-3,-5,-27,15,-4087
489069450,0,3,-6,-6,-2,12,-4100
489070450,0,6,-7,-5,-16,-1,-4096
489071450,0,10,-9,-9,-28,12,-4081
489072450,0,2,-3,-5,-11,13,-4090
489073450,0,1,0,-9,-4,16,-4081
489074450,0,9,-6,-8,-17,1,-4087
489075450,0,2,-5,-10,-13,12,-4090
489076450,0,0,-4,-7,-16,12,-4105
489077450,0,5,-2,-9,-20,2,-4098
489078450,0,0,2,-7,-24,3,-4100
489079450,0,4,-6,-4,-25,10,-4094
489080450,0,3,-7,-11,-22,17,-4090
489081450,0,1,-4,-8,-16,7,-4098
489082450,0,2,-6,-8,-11,25,-4083
489083450,0,6,0,-8,-14,6,-4086
489084450,0,3,-3,-6,-17,15,-4091
489085450,0,8,-4,-7,-18,5,-4091
489086450,0,2,-1,-8,-19,6,-4089
489087450,0,3,-7,-9,-14,12,-4091
489088450,0,5,-10,-6,-4,18,-4093
489089450,0,1,-6,-3,-20,15,-4098
489090450,0,5,-8,-7,-15,-1,-4102
489091450,0,2,-5,-8,-5,12,-4092
489092450,0,5,-9,-7,-17,6,-4077
489093450,0,8,-9,-13,-11,11,-4091
489094450,0,8,-1,-8,-4,6,-4069
489095450,0,4,-5,-8,-12,21,-4077
489096450,0,5,-8,-4,-12,4,-4074
489097450,0,1,-1,-5,-10,4,-4102
489098450,0,5,-9,-3,-9,-2,-4085
489099450,0,1,-1,-4,-27,-1,-4090
489100450,0,1,-3,-4,-4,13,-4101
489101450,0,8,-3,-5,-14,3,-4099
489102450,0,6,0,-8,-14,0,-4089
489103450,0,12,-6,-8,-10,22,-4092
489104450,0,8,1,-5,-24,-9,-4101
489105450,0,3,-1,-8,-2,4,-4089
489106450,0,9,-6,-7,-20,12,-4079
489107450,0,-1,1,-9,-24,4,-4102
489108450,0,1,-6,-7,-7,4,-4087
489109450,0,6,-3,-7,-19,6,-4092
489110450,0,5,-5,-7,-26,2,-4094
489111450,0,8,-2,-5,-26,20,-4114
489112450,0,7,-4,-6,-28,10,-4109
489113450,0,0,2,-5,-18,13,-4108
489114450,0,-1,-7,-7,-14,-1,-4090
489115450,0,0,-2,-7,-1,15,-4111
489116450,0,7,1,-8,-9,7,-4097
489117450,0,11,-8,-6,-6,3,-4102
489118450,0,5,-1,-1,-16,8,-4103
489119450,0,4,-2,-5,-13,12,-4097
489120450,0,4,-3,-3,-27,3,-4101
489121450,0,4,1,-8,-17,17,-4075
489122450,0,6,-4,-8,-6,1,-4096
489123450,0,4,-2,-6,-23,-5,-4100
489124450,0,1,-1,-9,-32,2,-4087
489125450,0,4,-9,-7,-25,1,-4079
489126450,0,1,-4,-7,-8,-6,-4088
489127450,0,2,-5,-11,-13,14,-4104
489128450,0,7,-6,-5,-12,12,-4085
489129450,0,0,-5,-8,-14,12,-4074
489130450,0,3,-7,-4,-8,-3,-4087
489131450,0,4,-4,-5,-4,21,-4069
489132450,0,5,-9,-7,-6,21,-4060
489133450,0,6,-8,-8,-11,14,-4084
489134450,0,1,0,-8,-8,8,-4074
489135450,0,5,-4,-9,-11,19,-4074
489136450,0,4,-1,-5,-17,10,-4090
489137450,0,5,-1,-7,-16,-4,-4076
489138450,0,4,-8,-8,-9,24,-4092
489139450,0,4,-3,-3,-18,4,-4082
489140450,0,1,-5,-7,-26,15,-4085
489141450,0,6,-1,-5,-23,14,-4101
489142450,0,6,-1,-5,-20,8,-4078
489143450,0,8,-6,-7,-10,5,-4085
489144450,0,2,0,-7,-8,12,-4093
489145450,0,9,-7,-8,-30,11,-4094
489146450,0,4,-8,-7,-24,11,-4099
489147450,0,1,-3,-7,-17,7,-4092
489148450,0,4,-4,-9,-16,-6,-4097
489149450,0,7,-4,-8,-15,21,-4092
489150450,0,7,0,-7,-8,16,-4085
489151450,0,8,-4,-6,-15,2,-4082
489152450,0,3,-2,-7,-12,-6,-4090
489153450,0,1,-3,-4,-28,6,-4093
489154450,0,8,-7,-4,-15,3,-4090
489155450,0,2,3,0,-17,14,-4091
489156450,0,2,-5,-3,-12,8,-4098
489157450,0,6,-10,-4,-10,6,-4096
489158450,0,4,0,-7,-14,13,-4095
489159450,0,1,-4,-10,1,0,-4097
489160450,0,1,1,-6,-14,15,-4095
489161450,0,2,-1,-7,-21,0,-4089
489162450,0,3,-6,-7,-30,8,-4093
489163450,0,4,-2,-3,-22,14,-4091
489164450,0,1,-5,-10,-18,2,-4109
489165450,0,2,-2,-7,-22,13,-4085
489166450,0,-2,0,-5,-5,12,-4085
489167450,0,2,-4,-5,-18,7,-4101
489168450,0,-4,0,-10,-15,-5,-4098
489169450,0,-2,-1,-6,-21,9,-4098
489170450,0,3,-5,-4,-9,26,-4099
489171450,0,1,-5,-8,6,14,-4094
489172450,0,7,-4,-3,-30,14,-4093
489173450,0,5,-1,0,-25,5,-4085
489174450,0,2,4,-1,-16,9,-4088
489175450,0,6,-4,-6,-22,19,-4080
489176450,0,1,-3,-5,-21,9,-4084
489177450,0,5,-5,-9,-10,3,-4106
489178450,0,4,-8,-6,-14,9,-4102
489179450,0,4,0,-7,-18,20,-4092
489180450,0,11,-8,-11,-25,10,-4098
489181450,0,3,-9,-9,-9,1,-4094
489182450,0,-3,1,-5,-25,5,-4079
489183450,0,6,-8,-9,-20,12,-4084
489184450,0,5,-3,-10,5,6,-4097
489185450,0,3,-4,-6,-18,10,-4085
489186450,0,6,-9,-5,-6,0,-4090
489187450,0,-2,0,-9,-11,7,-4086
489188450,0,2,-5,-4,-21,15,-4085
489189450,0,2,-3,-5,-11,19,-4088
489190450,0,8,-2,-3,-10,13,-4094
489191450,0,6,-3,-6,-8,9,-4086
489192450,0,6,-3,-8,-21,12,-4097
489193450,0,4,-7,-6,-33,-2,-4111
489194450,0,8,-6,-11,-15,25,-4096
489195450,0,5,-1,-9,-16,2,-4090
489196450,0,4,-2,-7,-21,7,-4089
489197450,0,2,-3,-4,-11,16,-4108
489198450,0,1,-3,-7,-26,10,-4093
489199450,0,8,-5,-5,-22,12,-4093
489200450,0,4,-3,-6,-21,14,-4089
489201450,0,2,-4,-11,-17,13,-4102
489202450,0,-1,-8,-10,-1,3,-4078
489203450,0,3,-5,-4,-27,8,-4104
489204450,0,10,-6,-10,-11,13,-4086
489205450,0,-1,2,-7,-10,22,-4082
489206450,0,7,-5,-4,-9,5,-4108
489207450,0,0,-3,-1,-12,18,-4097
489208450,0,4,-1,-7,-19,0,-4089
489209450,0,6,0,-8,-7,11,-4072
489210450,0,8,-2,-9,-24,2,-4092
489211450,0,4,-2,-7,-18,3,-4081
489212450,0,8,-6,-11,-19,2,-4081
489213450,0,6,-3,-4,-19,10,-4085
489214450,0,-1,-2,-6,-16,17,-4082
489215450,0,5,1,-7,-24,14,-4094
489216450,0,4,-3,-6,-22,11,-4097
489217450,0,3,0,-3,-8,25,-4087
489218450,0,7,-11,-13,-15,16,-4093
489219450,0,3,2,-6,-17,7,-4085
489220450,0,5,-4,-6,-19,10,-4087
489221450,0,6,-5,-10,-22,13,-4100
489222450,0,6,-2,-10,-10,4,-4101
489223450,0,5,-1,-10,-25,-1,-4096
489224450,0,1,0,-5,-20,20,-4087
489225450,0,4,-7,-7,-19,14,-4093
489226450,0,1,-3,-8,-7,10,-4084
489227450,0,4,1,-9,-20,2,-4084
489228450,0,2,-2,-6,0,9,-4106
489229450,0,5,1,-5,-19,22,-4086
489230450,0,2,-6,-7,-41,11,-4104
489231450,0,4,-10,-7,-22,12,-4093
489232450,0,4,-1,-5,-10,18,-4088
489233450,0,-1,-3,-3,-16,0,-4090
489234450,0,6,-5,-8,-20,14,-4076
489235450,0,5,-2,-4,-14,0,-4091
489236450,0,7,-8,-7,-6,6,-4078
489237450,0,2,-1,-8,-8,-5,-4071
489238450,0,3,-3,-5,8,11,-4095
489239450,0,8,-7,-7,-16,11,-4089
489240450,0,5,-2,-1,-8,16,-4097
489241450,0,2,-5,-11,-2,-4,-4075
489242450,0,3,-5,-9,-6,-5,-4086
489243450,0,9,-2,-8,-12,20,-4108
489244450,0,4,-9,-9,-2,5,-4089
489245450,0,5,-2,-12,-3,-1,-4094
489246450,0,7,0,-5,-8,7,-4110
489247450,0,5,-6,-10,-5,19,-4081
489248450,0,7,-4,-5,-17,22,-4096
489249450,0,6,-4,-9,-26,2,-4085
489250450,0,3,-4,-9,-6,7,-4084
489251450,0,2,-3,-11,-12,8,-4089
489252450,0,5,-6,-4,-3,1,-4098
489253450,0,3,-6,-8,-21,22,-4100
489254450,0,2,-7,-6,-15,10,-4098
489255450,0,9,2,-6,-19,14,-4099
489256450,0,-1,0,-6,-28,12,-4105
489257450,0,3,-8,-6,-17,7,-4101
489258450,0,5,-5,-5,-17,8,-4088
489259450,0,4,-2,-6,-9,7,-4090
489260450,0,5,-5,-4,-24,-1,-4091
489261450,0,4,-5,-12,-9,1,-4090
489262450,0,3,-7,-6,-11,2,-4094
489263450,0,5,-9,-2,-11,11,-4087
489264450,0,4,-4,-6,-15,-9,-4086
489265450,0,1,0,-5,-30,2,-4083
489266450,0,5,-2,-6,-24,5,-4100
489267450,0,2,-7,-10,-19,-2,-4093
489268450,0,4,-10,-6,-16,6,-4107
489269450,0,4,1,3,-12,1,-4097
489270450,0,3,-5,0,-3,15,-4107
489271450,0,3,-3,-7,-17,14,-4105
489272450,0,3,-3,-7,-14,9,-4099
489273450,0,7,-3,-8,-11,10,-4089
489274450,0,8,-1,-8,-27,-4,-4094
489275450,0,3,3,-2,-14,12,-4106
489276450,0,2,-11,-6,-23,8,-4096
489277450,0,3,-3,-10,-18,6,-4106
489278450,0,3,-5,-7,-19,-5,-4095
489279450,0,11,-7,-8,-27,1,-4098
489280450,0,4,-4,-7,-10,7,-4078
489281450,0,3,-5,-5,-13,-2,-4090
489282450,0,0,-4,-9,-29,9,-4080
489283450,0,6,1,-6,-22,8,-4099
489284450,0,9,-8,-9,-20,14,-4079
489285450,0,6,-8,-8,-26,12,-4080
489286450,0,4,-7,-3,-17,0,-4081
489287450,0,2,-2,-7,-26,14,-4105
489288450,0,4,-2,0,-14,-7,-4088
489289450,0,3,-1,-6,-22,4,-4094
489290450,0,5,-7,-10,-26,-2,-4090
489291450,0,5,1,-7,-17,14,-4082
489292450,0,6,-6,-4,-15,26,-4075
489293450,0,2,-4,-10,-31,10,-4085
489294450,0,5,0,-6,-32,7,-4072
489295450,0,3,-4,-9,-16,4,-4076
489296450,0,0,-6,-8,-16,17,-4081
489297450,0,8,-2,-6,-18,2,-4090
489298450,0,10,-5,-14,-21,4,-4093
489299450,0,3,-1,-9,-4,8,-4089
489300450,0,9,-5,-7,-14,18,-4091
489301450,0,2,5,-4,-17,8,-4084
489302450,0,6,-3,-3,-9,-6,-4096
489303450,0,5,-7,-6,-22,14,-4087
489304450,0,2,0,-6,-3,8,-4089
489305450,0,7,-4,-11,-10,3,-4087
489306450,0,8,-5,-6,-18,11,-4092
489307450,0,7,0,-10,-13,11,-4093
489308450,0,4,-3,-9,-15,5,-4083
489309450,0,3,-2,-10,-23,3,-4080
489310450,0,5,-5,-8,-33,7,-4080
489311450,0,12,-7,-9,-14,3,-4085
489312450,0,3,-3,-11,-9,5,-4069
489313450,0,6,-2,-6,-17,4,-4097
489314450,0,6,-7,-4,-20,17,-4089
489315450,0,-4,0,-3,-4,11,-4088
489316450,0,4,-5,-7,-20,2,-4108
489317450,0,3,-6,-7,-20,-2,-4101
489318450,0,9,-5,-9,-21,30,-4099
489319450,0,8,-8,-10,-32,4,-4096
489320450,0,2,-1,-4,-26,8,-4103
489321450,0,4,-6,-5,-12,5,-4084
489322450,0,6,0,-7,-27,15,-4096
489323450,0,-1,1,-2,0,7,-4085
489324450,0,9,-5,-6,4,8,-4090
489325450,0,1,3,-4,-15,5,-4098
489326450,0,3,-4,-9,-3,16,-4102
489327450,0,6,-6,-11,-9,17,-4104
489328450,0,3,-6,-7,-13,3,-4091
489329450,0,8,-4,-7,-22,7,-4084
489330450,0,3,-8,-7,-11,10,-4080
489331450,0,-2,0,-2,-29,-12,-4104
489332450,0,5,-5,-9,-20,14,-4109
489333450,0,-5,0,-4,-27,-1,-4088
489334450,0,7,-7,-9,-18,2,-4085
489335450,0,4,-10,-8,-8,10,-4086
489336450,0,7,-7,-8,-12,14,-4087
489337450,0,1,-1,-2,-16,-4,-4093
489338450,0,6,-1,-10,-17,6,-4107
489339450,0,3,-8,-7,-8,5,-4102
489340450,0,5,-4,-2,-18,16,-4108
489341450,0,6,-3,-2,-21,4,-4080
489342450,0,0,-6,-8,-9,16,-4076
489343450,0,9,-8,-6,3,12,-4091
489344450,0,2,5,-1,-12,4,-4104
489345450,0,6,-6,-11,-12,12,-4098
489346450,0,2,-6,-10,-18,22,-4099
489347450,0,-4,-1,-9,-19,22,-4086
489348450,0,7,-2,-8,-11,17,-4076
489349450,0,6,-8,-8,-19,8,-4077
489350450,0,6,-4,-7,-27,8,-4076
489351450,0,6,-2,-3,-29,9,-4077
489352450,0,-1,-2,-7,-18,14,-4073
489353450,0,1,-4,-8,-7,-1,-4069
489354450,0,0,-1,-4,-4,4,-4089
489355450,0,4,-7,-7,-17,5,-4085
489356450,0,5,0,-5,-16,9,-4092
489357450,0,4,-1,-5,-12,22,-4089
489358450,0,10,-1,-10,-12,0,-4081
489359450,0,8,-6,-13,-10,27,-4072
489360450,0,6,-3,-10,-11,10,-4080
489361450,0,3,-4,-4,-12,8,-4094
489362450,0,4,-11,-13,-9,8,-4068
489363450,0,5,-4,-9,-24,3,-4103
489364450,0,9,-7,-11,-8,11,-4079
489365450,0,7,2,-9,-27,2,-4106
489366450,0,6,-4,-9,-13,7,-4084
489367450,0,6,-7,-10,-17,3,-4087
489368450,0,-1,-6,-8,-23,12,-4098
489369450,0,5,-4,-6,-21,6,-4097
489370450,0,0,0,-2,-28,7,-4094
489371450,0,5,2,-7,-8,11,-4098
489372450,0,5,-3,-8,-3,14,-4096
489373450,0,1,3,-6,-13,18,-4116
489374450,0,5,-1,-11,-17,7,-4096
489375450,0,7,-3,-9,-18,16,-4100
489376450,0,6,1,-10,-6,20,-4098
489377450,0,6,-4,-7,-12,9,-4098
489378450,0,7,1,-4,-11,9,-4078
489379450,0,4,-2,-8,-26,5,-4085
489380450,0,4,-4,-6,-25,-7,-4101
489381450,0,1,1,-5,-11,-1,-4079
489382450,0,9,-7,-8,-13,-3,-4079
489383450,0,5,0,-5,-24,7,-4079
489384450,0,6,-2,-5,-10,-3,-4095
489385450,0,9,-5,-10,-12,6,-4099
489386450,0,-1,-3,-5,-24,-5,-4103
489387450,0,1,-1,-5,-23,11,-4086
489388450,0,2,-4,-5,-8,6,-4091
489389450,0,9,0,-5,-23,11,-4089
489390450,0,2,1,-5,-13,5,-4095
489391450,0,2,0,-5,-21,14,-4092
489392450,0,7,-4,-12,1,3,-4093
489393450,0,-1,-5,-4,-20,14,-4099
489394450,0,2,-7,-6,-15,6,-4096
489395450,0,3,-6,-6,-24,-1,-4095
489396450,0,4,-4,-6,-19,10,-4079
489397450,0,-3,-4,-7,-12,-3,-4093
489398450,0,7,-5,-5,-18,2,-4083
489399450,0,2,-4,-9,-16,7,-4081
489400450,0,1,0,-8,-19,1,-4072
489401450,0,6,-1,-6,-23,16,-4094
489402450,0,5,-1,-9,-25,4,-4087
489403450,0,10,-1,-12,-8,8,-4096
489404450,0,5,-4,-5,-1,23,-4078
489405450,0,-1,-2,-8,1,4,-4095
489406450,0,6,-1,-8,-15,23,-4085
489407450,0,7,-3,-7,-11,16,-4078
489408450,0,5,1,-4,-8,9,-4089
489409450,0,6,-2,-10,-5,10,-4097
489410450,0,2,1,-6,-13,13,-4086
489411450,0,7,3,-4,-9,13,-4094
489412450,0,3,-6,-9,-25,15,-4088
489413450,0,3,-1,-3,-15,-2,-4087
489414450,0,4,-1,-5,-23,7,-4076
489415450,0,5,-2,-10,-13,17,-4093
489416450,0,6,1,-10,-19,9,-4091
489417450,0,5,-3,-10,-18,2,-4105
489418450,0,5,0,-11,-22,-1,-4086
489419450,0,5,0,-7,-12,-5,-4096
489420450,0,3,-3,-6,-9,3,-4085
489421450,0,5,-5,-5,1,14,-4086
489422450,0,5,-5,-6,-14,2,-4095
489423450,0,6,1,-8,-5,-3,-4092
489424450,0,3,1,-2,-11,13,-4097
489425450,0,11,-8,-8,-21,13,-4096
489426450,0,4,-5,-13,-26,15,-4092
489427450,0,8,-3,-6,-10,1,-4089
489428450,0,6,-5,-6,-15,0,-4095
489429450,0,1,-2,-6,-9,5,-4102
489430450,0,5,-3,-4,-17,-5,-4098
489431450,0,7,-1,-7,-27,17,-4077
489432450,0,8,1,-6,-17,9,-4090
489433450,0,5,-9,-8,-27,5,-4089
489434450,0,-2,-2,-7,-27,-13,-4073
489435450,0,3,-4,-9,-23,7,-4091
489436450,0,1,-6,-8,-27,11,-4103
489437450,0,3,-6,-4,-17,14,-4094
489438450,0,4,-6,-5,-1,2,-4092
489439450,0,6,-7,-5,-16,12,-4098
489440450,0,3,-5,-7,-11,-3,-4099
489441450,0,2,-7,-5,-12,0,-4083
489442450,0,5,-1,-10,-2,-8,-4093
489443450,0,5,-2,-5,-9,-1,-4098
489444450,0,3,-5,-10,-2,7,-4102
489445450,0,4,-2,-5,-3,6,-4089
489446450,0,3,-3,-9,-15,8,-4079
489447450,0,2,-5,-5,-18,4,-4090
489448450,0,5,1,-6,-14,10,-4099
489449450,0,6,-3,-7,-11,12,-4090
489450450,0,3,-5,-5,-9,2,-4088
489451450,0,5,-4,-7,-19,22,-4084
489452450,0,6,-5,-8,-7,6,-4088
489453450,0,8,-1,-5,-20,30,-4080
489454450,0,5,-9,-8,-14,15,-4086
489455450,0,7,-8,-7,-3,24,-4081
489456450,0,3,-5,-9,-26,19,-4083
489457450,0,1,-4,-6,-8,25,-4084
489458450,0,2,-3,-4,-15,18,-4077
489459450,0,2,1,-1,-20,3,-4096
489460450,0,5,-3,-11,-18,-5,-4080
489461450,0,3,-3,-6,-2,17,-4089
489462450,0,6,-10,-9,-2,8,-4078
489463450,0,9,-10,-8,-20,11,-4089
489464450,0,0,0,-9,-5,14,-4083
489465450,0,6,-11,-3,-23,16,-4079
489466450,0,4,-2,-3,-17,20,-4091
489467450,0,7,-4,-4,-18,-6,-4090
489468450,0,8,-2,-9,-18,16,-4090
489469450,0,9,-2,-7,-6,0,-4102
489470450,0,2,-7,-8,-27,1,-4093
489471450,0,5,1,-5,-8,15,-4103
489472450,0,4,-1,-2,-6,12,-4093
489473450,0,3,-7,-4,-15,13,-4096
489474450,0,6,-6,-6,-3,19,-4103
489475450,0,5,1,-7,-5,18,-4115
489476450,0,7,-3,-9,-18,14,-4092
489477450,0,1,-2,-7,-10,6,-4095
489478450,0,9,-2,-10,-22,-3,-4099
489479450,0,4,-8,-10,-17,-3,-4095
489480450,0,3,7,-8,-10,18,-4091
489481450,0,4,-5,-6,-37,6,-4097
489482450,0,7,-2,-4,-28,13,-4110
489483450,0,1,-6,-6,-15,25,-4090
489484450,0,0,0,-7,-9,9,-4107
489485450,0,5,-7,-4,-26,0,-4089
489486450,0,3,-3,-6,0,18,-4103
489487450,0,8,-7,-5,-9,5,-4089
489488450,0,2,-5,-2,-12,15,-4096
489489450,0,12,-1,-7,-14,-4,-4100
489490450,0,2,-4,-4,-9,12,-4076
489491450,0,5,-7,-9,-15,12,-4085
489492450,0,3,-3,-7,-12,1,-4088
489493450,0,2,0,-3,-23,5,-4088
489494450,0,6,-1,-7,-12,-8,-4085
489495450,0,4,0,-10,-6,-2,-4095
489496450,0,1,-5,-10,-30,15,-4081
489497450,0,-3,-7,-13,-9,16,-4077
489498450,0,0,0,-9,-7,3,-4089
489499450,0,3,-4,-12,-9,21,-4081
489500450,0,3,-4,-7,-18,1,-4084
489501450,0,3,-6,-6,-12,20,-4089
489502450,0,2,-3,-11,-14,-1,-4094
489503450,0,6,-4,-9,-12,-12,-4104
489504450,0,3,-4,-6,-20,-3,-4110
489505450,0,6,-5,-10,-15,-5,-4105
489506450,0,7,-5,-5,-16,12,-4086
489507450,0,0,-6,-6,-22,15,-4089
489508450,0,10,-9,-4,-14,7,-4090
489509450,0,5,0,-8,-11,7,-4090
489510450,0,6,-3,-5,-30,6,-4085
489511450,0,6,1,-3,-9,5,-4089
489512450,0,1,2,-3,13,14,-4092
489513450,0,9,-8,-4,-15,10,-4090
489514450,0,-1,-2,-8,-12,10,-4086
489515450,0,6,-5,-2,-17,0,-4087
489516450,0,5,-1,-13,-2,7,-4099
489517450,0,4,-5,-8,-23,20,-4097
489518450,0,2,-7,-12,-6,10,-4091
489519450,0,5,-3,-9,-13,15,-4097
489520450,0,1,-6,-12,-26,6,-4098
489521450,0,4,-2,-10,-19,13,-4110
489522450,0,3,-2,-7,-6,3,-4101
489523450,0,4,-3,-6,-23,17,-4100
489524450,0,5,-6,-5,-19,-10,-4096
489525450,0,7,0,-3,-17,-9,-4094
489526450,0,8,-6,-6,-13,1,-4097
489527450,0,4,1,-10,-6,12,-4105
489528450,0,4,-4,-5,-23,16,-4095
489529450,0,1,1,-1,-20,13,-4085
489530450,0,2,3,-8,-4,9,-4081
489531450,0,5,-2,-10,-20,2,-4101
489532450,0,7,-1,-9,-17,10,-4085
489533450,0,3,-6,-7,-15,-7,-4085
489534450,0,3,-3,-7,-5,5,-4091
489535450,0,4,-3,-7,-18,10,-4093
489536450,0,6,0,-7,-18,16,-4100
489537450,0,10,-7,-10,-17,-6,-4075
489538450,0,4,-7,-5,-18,17,-4101
489539450,0,1,-4,-1,-6,13,-4102
489540450,0,2,-6,-8,-18,2,-4107
489541450,0,1,-2,-3,-18,22,-4096
489542450,0,-3,-1,-3,-3,19,-4081
489543450,0,0,-7,-7,-10,10,-4099
489544450,0,-2,-2,-9,-6,9,-4098
489545450,0,2,-6,-9,-10,13,-4088
489546450,0,0,-2,-7,-10,12,-4104
489547450,0,7,-7,-5,-16,17,-4099
489548450,0,6,0,-4,-34,6,-4096
489549450,0,2,-3,-4,-9,1,-4090
489550450,0,9,-10,-11,-17,10,-4088
489551450,0,-1,-6,0,-6,5,-4090
489552450,0,9,-3,-4,-24,24,-4092
489553450,0,8,-8,-3,-15,11,-4085
489554450,0,1,-3,-9,-16,11,-4103
489555450,0,3,-5,-5,-31,12,-4074
489556450,0,0,-4,-9,-14,2,-4081
489557450,0,0,-1,-5,-13,12,-4079
489558450,0,2,-5,-9,-23,13,-4084
489559450,0,2,-8,-11,-20,10,-4070
489560450,0,1,-8,-9,-15,8,-4086
489561450,0,2,-7,-6,-14,10,-4066
489562450,0,0,1,-6,-6,10,-4081
489563450,0,4,-8,-9,-9,7,-4096
489564450,0,14,-11,-8,-5,6,-4090
489565450,0,7,-2,-5,-21,7,-4076
489566450,0,3,-5,-9,-23,10,-4086
489567450,0,0,-6,-9,-16,7,-4078
489568450,0,4,-5,-3,-20,10,-4103
489569450,0,7,-9,-10,-6,-2,-4098
489570450,0,0,-2,-2,-15,2,-4094
489571450,0,9,-8,-5,-16,4,-4087
489572450,0,8,1,-3,-14,7,-4074
489573450,0,4,2,-2,-17,13,-4082
489574450,0,5,-2,-3,-24,17,-4098
489575450,0,9,-3,-4,-7,24,-4086
489576450,0,7,1,-9,-15,7,-4101
489577450,0,8,-8,-4,-17,8,-4091
489578450,0,6,-3,-9,-15,10,-4107
489579450,0,4,-6,-5,-15,5,-4098
489580450,0,5,-8,-6,-2,9,-4086
489581450,0,4,-5,-6,-16,0,-4091
489582450,0,7,-7,-5,-24,4,-4099
489583450,0,6,-2,-6,-12,13,-4100
489584450,0,1,-5,-11,-14,10,-4088
489585450,0,4,-7,-9,-20,16,-4092
489586450,0,6,-3,-9,-36,4,-4094
489587450,0,6,-4,-6,-26,-1,-4083
489588450,0,4,-6,-10,-24,-1,-4091
489589450,0,-1,4,-6,-20,7,-4084
489590450,0,6,-3,-6,-8,8,-4089
489591450,0,-1,-1,-6,-25,19,-4107
489592450,0,6,-7,-13,-13,6,-4083
489593450,0,3,-1,-6,-22,7,-4095
489594450,0,3,-3,-5,-13,8,-4104
489595450,0,5,-4,-4,-11,2,-4092
489596450,0,5,-3,-7,5,3,-4089
489597450,0,7,-2,-3,-2,14,-4094
489598450,0,0,-4,-5,-23,14,-4096
489599450,0,3,-2,-3,-23,18,-4103
489600450,0,4,-3,-7,-19,16,-4091
489601450,0,3,0,-5,-18,10,-4087
489602450,0,5,-7,-9,-20,13,-4091
489603450,0,4,-3,-7,-26,7,-4081
489604450,0,9,-1,-12,-7,10,-4095
489605450,0,3,-3,-8,-21,-4,-4085
489606450,0,9,-14,-12,-5,5,-4096
489607450,0,5,-10,-6,-3,7,-4087
489608450,0,8,-3,-7,-17,6,-4080
489609450,0,8,-6,-10,-26,16,-4079
489610450,0,5,-4,-5,-14,23,-4100
489611450,0,3,-4,-4,-31,4,-4090
489612450,0,3,-8,0,-24,8,-4094
489613450,0,0,-5,-11,-22,16,-4081
489614450,0,0,-11,-11,-27,21,-4094
489615450,0,5,-5,-2,-15,4,-4096
489616450,0,5,-4,-4,-23,3,-4080
489617450,0,6,-3,-2,-9,11,-4086
489618450,0,6,-6,-3,-20,4,-4095
489619450,0,5,-3,-4,-10,3,-4094
489620450,0,-2,-2,-6,-18,0,-4100
489621450,0,5,-1,-6,-15,5,-4094
489622450,0,3,-4,-7,-15,9,-4101
489623450,0,-2,-1,-6,-13,14,-4088
489624450,0,3,-4,-8,-4,10,-4087
489625450,0,8,-7,-11,-22,-1,-4086
489626450,0,-3,0,-6,-14,7,-4091
489627450,0,9,0,-10,0,13,-4093
489628450,0,2,-5,-6,-15,5,-4089
489629450,0,6,-1,-6,-17,13,-4096
489630450,0,6,-4,-8,-19,0,-4089
489631450,0,4,1,-6,-16,25,-4088
489632450,0,6,-2,-6,-1,5,-4084
489633450,0,6,-8,-6,-21,15,-4101
489634450,0,0,-7,-3,-21,18,-4103
489635450,0,2,-4,-8,-17,3,-4087
489636450,0,3,1,-3,-26,-4,-4085
489637450,0,12,1,-4,-21,13,-4082
489638450,0,5,-8,-7,-17,0,-4097
489639450,0,10,-8,-10,-23,21,-4091
489640450,0,8,-8,-7,-13,-5,-4094
489641450,0,8,-5,-6,-10,8,-4083
489642450,0,1,-4,-9,-8,6,-4091
489643450,0,2,-3,-7,-1,5,-4092
489644450,0,5,-1,-8,-5,13,-4102
489645450,0,6,-3,-7,-11,2,-4108
489646450,0,1,-2,-6,-23,11,-4090
489647450,0,2,-2,-5,-6,14,-4086
489648450,0,6,-6,-4,-17,2,-4099
489649450,0,3,0,-6,-25,13,-4099
489650450,0,3,3,-8,-24,-1,-4095
489651450,0,9,-7,-5,-23,2,-4082
489652450,0,7,2,-8,-17,-9,-4095
489653450,0,5,-1,-8,-20,3,-4084
489654450,0,-1,-6,-7,-9,12,-4081
489655450,0,3,-6,-12,-28,5,-4108
489656450,0,14,-11,-8,-19,3,-4084
489657450,0,3,-2,-7,-7,4,-4102
489658450,0,4,-6,-8,-16,4,-4103
489659450,0,7,-9,-1,-23,5,-4083
489660450,0,1,-6,-7,-28,18,-4088
489661450,0,5,-5,-11,-9,-1,-4082
489662450,0,7,-5,-9,-23,12,-4100
489663450,0,-1,2,-6,-20,6,-4098
489664450,0,5,-3,-9,-4,5,-4089
489665450,0,2,-10,-8,-17,5,-4091
489666450,0,1,-4,-3,-7,23,-4092
489667450,0,3,-5,-7,-15,21,-4106
489668450,0,3,-5,-5,-22,2,-4090
489669450,0,4,-4,-7,-18,7,-4098
489670450,0,0,-5,-5,-13,11,-4103
489671450,0,7,-4,-9,-18,11,-4082
489672450,0,6,-4,-8,-12,33,-4088
489673450,0,8,-6,-8,-15,4,-4082
489674450,0,5,-6,-6,-8,8,-4078
489675450,0,7,-6,-7,-14,8,-4082
489676450,0,3,-5,-5,-24,10,-4081
489677450,0,5,-8,-11,-20,13,-4094
489678450,0,4,-5,-4,-18,19,-4076
489679450,0,6,-1,1,5,7,-4089
489680450,0,6,-5,-5,-6,12,-4086
489681450,0,0,-5,-2,-9,10,-4084
489682450,0,7,-4,-6,-4,11,-4086
489683450,0,8,-6,-3,-13,3,-4093
489684450,0,5,-2,-8,-7,4,-4079
489685450,0,-3,-4,-10,-10,10,-4092
489686450,0,-3,-2,-8,-9,6,-4097
489687450,0,4,0,-8,-20,3,-4101
489688450,0,3,-6,-6,-23,11,-4084
489689450,0,8,-5,-6,-23,-2,-4082
489690450,0,4,-1,-2,-32,28,-4089
489691450,0,3,4,3,-11,9,-4094
489692450,0,2,-3,-6,-11,6,-4083
489693450,0,1,-2,-6,-4,9,-4099
489694450,0,6,-1,-5,-8,4,-4104
489695450,0,8,-3,-9,-6,22,-4087
489696450,0,5,-5,-8,-19,5,-4095
489697450,0,3,1,-4,-21,15,-4095
489698450,0,2,-5,-11,-16,19,-4093
489699450,0,4,-6,-10,-18,16,-4108
489700450,0,8,-2,-7,-25,11,-4095
489701450,0,1,-4,-3,-14,0,-4104
489702450,0,9,-3,-10,-12,7,-4108
489703450,0,5,-8,-10,-26,12,-4093
489704450,0,3,-1,-7,-25,-14,-4107
489705450,0,7,-4,-11,-14,2,-4101
489706450,0,3,-5,-10,-31,9,-4095
489707450,0,2,-6,-6,-29,2,-4088
489708450,0,1,2,-7,-16,8,-4098
489709450,0,3,-5,-7,-12,8,-4100
489710450,0,5,-2,-8,-14,15,-4107
489711450,0,2,1,-8,-23,6,-4087
489712450,0,4,-3,-7,-10,15,-4086
489713450,0,1,-5,-3,-12,15,-4073
489714450,0,6,-1,-4,0,2,-4100
489715450,0,4,-5,-9,-10,14,-4066
489716450,0,-1,-7,-5,-14,10,-4081
489717450,0,3,-6,-6,-27,-4,-4084
489718450,0,8,-7,-13,-18,14,-4087
489719450,0,4,5,-13,1,10,-4075
489720450,0,5,-2,-7,-19,14,-4079
489721450,0,5,-5,-4,-7,14,-4084
489722450,0,4,-3,-8,-11,25,-4078
489723450,0,6,-12,-12,-33,24,-4084
489724450,0,5,2,-2,-18,-2,-4082
489725450,0,6,-2,-5,-19,7,-4085
489726450,0,3,0,-11,-15,7,-4093
489727450,0,5,-4,-5,-12,10,-4092
489728450,0,12,-9,-10,-16,5,-4102
489729450,0,5,-4,-8,-17,18,-4084
489730450,0,8,1,-6,8,8,-4098
489731450,0,2,-7,-5,-4,15,-4105
489732450,0,2,0,-6,-29,1,-4103
489733450,0,1,-3,-10,-12,8,-4098
489734450,0,2,-9,-8,0,11,-4097
489735450,0,6,-1,-6,-27,16,-4085
489736450,0,8,-2,-8,-24,18,-4091
489737450,0,5,-4,-2,-11,3,-4102
489738450,0,1,-5,-2,-14,3,-4084
489739450,0,3,-8,-3,-15,4,-4087
489740450,0,1,-2,-8,-16,4,-4087
489741450,0,7,-4,-6,-12,1,-4105
489742450,0,4,0,-7,-20,18,-4097
489743450,0,3,5,-4,-21,2,-4092
489744450,0,9,-3,-4,-16,11,-4096
489745450,0,-2,1,-10,-40,14,-4086
489746450,0,-1,-5,-11,-8,11,-4100
489747450,0,8,-6,-7,-15,-5,-4092
489748450,0,7,-8,-10,-9,2,-4082
489749450,0,1,0,-8,-10,18,-4095
489750450,0,7,-6,-11,-26,5,-4090
489751450,0,6,-6,-8,-8,5,-4090
489752450,0,7,-6,-11,-8,-4,-4089
489753450,0,-2,-5,-5,-19,2,-4097
489754450,0,6,-4,-5,-5,1,-4096
489755450,0,5,-6,-6,-13,13,-4078
489756450,0,3,-4,-5,-10,4,-4090
489757450,0,1,-4,-6,-15,8,-4089
489758450,0,6,-6,-11,-15,19,-4086
489759450,0,5,1,-5,-15,10,-4088
489760450,0,9,-7,-13,-13,3,-4090
489761450,0,-1,4,-5,-19,5,-4100
489762450,0,6,-3,-9,-20,13,-4109
489763450,0,4,-5,-8,-21,4,-4096
489764450,0,1,-1,0,-20,10,-4096
489765450,0,3,1,1,3,13,-4099
489766450,0,11,-4,-5,-19,3,-4091
489767450,0,4,-8,-3,-7,-3,-4089
489768450,0,6,-1,-7,-18,10,-4077
489769450,0,5,-4,-4,-4,16,-4082
489770450,0,4,-6,-6,-11,8,-4098
489771450,0,9,-6,-7,-12,3,-4083
489772450,0,5,3,-3,-9,-1,-4093
489773450,0,8,-10,-8,-14,9,-4092
489774450,0,2,-3,-11,-24,19,-4083
489775450,0,6,-1,-6,-19,10,-4086
489776450,0,12,-7,-6,-8,18,-4096
489777450,0,5,-2,-8,-6,21,-4088
489778450,0,2,-5,-3,-11,11,-4082
489779450,0,2,-7,-6,-5,20,-4092
489780450,0,4,-6,-10,-10,25,-4087
489781450,0,8,0,-8,-14,12,-4085
489782450,0,5,-4,-9,-12,-2,-4104
489783450,0,8,-1,-2,-16,8,-4095
489784450,0,9,-11,-14,-9,17,-4096
489785450,0,12,-5,-8,-18,5,-4105
489786450,0,6,-2,-8,-26,10,-4098
489787450,0,6,-7,-5,-24,10,-4092
489788450,0,8,-3,-9,-13,-5,-4086
489789450,0,6,-9,-3,-24,11,-4074
489790450,0,3,-8,-5,-17,18,-4088
489791450,0,2,-1,-3,-7,6,-4073
489792450,0,5,-4,-10,-7,13,-4080
489793450,0,3,-2,-3,-10,7,-4081
489794450,0,3,-6,-10,-11,13,-4087
489795450,0,1,-5,-8,-24,20,-4084
489796450,0,6,2,-4,-3,10,-4096
489797450,0,4,-6,-6,-3,13,-4092
489798450,0,1,-4,-6,-16,12,-4086
489799450,0,4,-2,-8,-29,5,-4076
489800450,0,6,2,-8,-7,4,-4085
489801450,0,5,0,-8,-24,9,-4088
489802450,0,7,-2,-3,-26,9,-4101
489803450,0,0,-8,-5,-6,8,-4089
489804450,0,3,1,-2,-17,-2,-4098
489805450,0,7,-3,-4,-13,9,-4082
489806450,0,3,-7,-5,-36,15,-4087
489807450,0,6,-11,-10,-24,5,-4098
489808450,0,4,-6,-10,-12,6,-4092
489809450,0,6,-4,-7,-28,10,-4113
489810450,0,9,-3,-8,-11,-1,-4101
489811450,0,7,-4,-9,-25,12,-4111
489812450,0,4,-3,-10,-4,12,-4108
489813450,0,4,-6,-9,-7,9,-4090
489814450,0,2,-1,-12,-10,11,-4100
489815450,0,6,3,-6,-20,22,-4102
489816450,0,10,-7,-5,-20,-3,-4102
489817450,0,4,2,-2,-12,19,-4097
489818450,0,3,-4,-3,-10,8,-4094
489819450,0,1,-7,-8,-23,18,-4097
489820450,0,1,-2,-9,-18,4,-4091
489821450,0,4,-5,-7,-26,1,-4102
489822450,0,4,-5,-9,-20,13,-4081
489823450,0,3,2,-5,-10,5,-4076
489824450,0,8,-8,-5,-22,6,-4085
489825450,0,3,-2,-5,-22,11,-4075
489826450,0,5,-6,-1,-20,26,-4093
489827450,0,0,-7,-8,-17,7,-4087
489828450,0,1,1,-6,-20,6,-4074
489829450,0,8,-6,-8,-13,17,-4078
489830450,0,8,-3,-5,-8,5,-4081
489831450,0,6,0,-9,-2,-3,-4075
489832450,0,4,-6,-9,-11,9,-4096
489833450,0,-5,0,-6,-12,13,-4083
489834450,0,6,-5,-8,-15,-2,-4097
489835450,0,7,-4,-10,-22,15,-4093
489836450,0,0,2,-7,-18,12,-4086
489837450,0,5,-8,-10,-15,-2,-4090
489838450,0,3,-4,-9,-10,14,-4092
489839450,0,11,-6,-10,-15,8,-4086
489840450,0,-1,-4,-7,-10,3,-4104
489841450,0,-1,-1,-4,-14,-5,-4092
489842450,0,2,-5,-7,-24,7,-4087
489843450,0,5,-2,-4,-19,5,-4098
489844450,0,-4,-2,0,-5,7,-4085
489845450,0,-2,-4,-4,-35,14,-4108
489846450,0,6,-5,-5,-4,-4,-4078
489847450,0,8,-8,-3,-7,16,-4090
489848450,0,8,-4,-7,-11,23,-4102
489849450,0,4,-8,-4,-12,17,-4107
489850450,0,4,-5,-3,-14,19,-4076
489851450,0,5,-6,-8,-18,-8,-4089
489852450,0,4,-4,-12,-15,12,-4083
489853450,0,6,-5,-6,-16,9,-4092
489854450,0,-1,1,-1,-14,7,-4101
489855450,0,0,-2,-2,-4,7,-4087
489856450,0,8,-4,-4,-12,12,-4098
489857450,0,6,-2,-7,-28,-3,-4097
489858450,0,6,-3,-8,-18,13,-4085
489859450,0,3,-6,-6,-20,5,-4094
489860450,0,7,-7,-4,-14,6,-4095
489861450,0,2,-4,-4,-11,13,-4084
489862450,0,3,-3,-7,-12,3,-4087
489863450,0,2,-4,-8,-10,-1,-4098
489864450,0,6,0,-9,-16,16,-4097
489865450,0,6,3,-6,-10,18,-4092
489866450,0,2,-2,-5,-15,12,-4101
489867450,0,2,0,-8,-12,6,-4099
489868450,0,4,-4,-8,-17,23,-4099
489869450,0,8,-6,-9,-15,0,-4095
489870450,0,1,-1,-2,-27,19,-4083
489871450,0,4,-2,-9,-22,6,-4088
489872450,0,3,-7,-6,-27,10,-4096
489873450,0,2,4,-2,-8,-2,-4096
489874450,0,6,-8,-8,-26,10,-4091
489875450,0,6,-5,-6,-13,13,-4091
489876450,0,6,3,-3,-24,5,-4096
489877450,0,9,-6,-7,-26,10,-4081
489878450,0,1,-2,-7,-21,1,-4076
489879450,0,3,-5,-7,-12,6,-4093
489880450,0,4,0,-5,-9,3,-4075
489881450,0,6,-1,-4,-15,16,-4067
489882450,0,7,-4,-12,-14,10,-4069
489883450,0,9,-5,-8,-9,5,-4092
489884450,0,3,-5,-3,-9,11,-4082
489885450,0,3,-12,-8,-10,-4,-4095
489886450,0,5,-1,-8,-10,12,-4086
489887450,0,5,-3,-6,-19,10,-4103
489888450,0,1,-3,-9,-24,1,-4093
489889450,0,10,-2,-13,-22,28,-4109
489890450,0,6,-8,-7,-24,-1,-4084
489891450,0,3,-8,-7,-26,21,-4074
489892450,0,5,-4,-7,-12,3,-4076
489893450,0,7,-6,-4,-13,17,-4088
489894450,0,9,-7,-4,-11,18,-4087
489895450,0,5,-1,-5,-5,2,-4080
489896450,0,0,-1,-6,-3,7,-4091
489897450,0,2,-3,-7,-14,20,-4096
489898450,0,-1,-6,-5,-12,16,-4102
489899450,0,2,-3,-11,-22,8,-4092
489900450,0,-1,2,-5,-10,9,-4094
489901450,0,3,-9,-12,-21,35,-4091
489902450,0,6,0,-4,-16,8,-4082
489903450,0,4,-5,-4,-11,17,-4095
489904450,0,10,-2,-11,-6,9,-4075
489905450,0,5,-1,-13,-7,2,-4099
489906450,0,9,-3,-8,-13,15,-4084
489907450,0,6,-1,-9,-24,2,-4095
489908450,0,3,2,-1,-7,15,-4081
489909450,0,2,-5,-7,-11,1,-4088
489910450,0,2,-5,-4,-23,9,-4097
489911450,0,8,-2,-8,-8,17,-4103
489912450,0,7,-6,-8,-30,3,-4081
489913450,0,3,-7,-5,-2,18,-4086
489914450,0,6,-9,-8,-17,16,-4098
489915450,0,5,-6,-6,0,-2,-4081
489916450,0,8,-9,-5,-11,15,-4103
489917450,0,4,-2,-4,-17,7,-4100
489918450,0,8,-5,-5,0,-6,-4093
489919450,0,1,-3,-5,-12,13,-4090
489920450,0,3,-5,-6,-15,5,-4093
489921450,0,-1,-4,-7,-28,9,-4086
489922450,0,2,-11,-8,-17,11,-4083
489923450,0,3,-3,-8,-34,6,-4099
489924450,0,2,1,-7,-26,10,-4079
489925450,0,4,-6,-7,-5,4,-4096
489926450,0,7,-6,-7,-13,-1,-4072
489927450,0,5,-2,-7,-15,-3,-4094
489928450,0,4,-4,-4,-32,6,-4102
489929450,0,-1,-4,-5,-16,5,-4069
489930450,0,3,-11,-5,-27,16,-4084
489931450,0,-1,1,-5,-12,17,-4094
489932450,0,1,3,-7,-11,24,-4085
489933450,0,4,-2,-6,-20,15,-4083
489934450,0,2,-3,-5,-1,15,-4096
489935450,0,8,-3,-7,-33,14,-4092
489936450,0,9,-8,-10,-19,4,-4075
489937450,0,1,2,-3,-17,16,-4068
489938450,0,3,-3,-6,-22,-2,-4097
489939450,0,5,-10,-12,-27,10,-4087
489940450,0,8,-9,-8,-12,2,-4108
489941450,0,-1,-3,-8,-35,26,-4083
489942450,0,7,-1,-9,-29,25,-4086
489943450,0,6,-1,-6,4,7,-4087
489944450,0,2,-5,-5,-1,15,-4076
489945450,0,3,-3,-2,-13,18,-4090
489946450,0,6,-3,-8,-15,10,-4093
489947450,0,8,-5,-7,-21,4,-4102
489948450,0,2,-5,-4,-30,2,-4085
489949450,0,9,-4,-4,-22,16,-4096
489950450,0,2,-6,-8,-9,3,-4095
489951450,0,1,-2,-3,-16,2,-4106
489952450,0,11,-5,-12,-25,2,-4099
489953450,0,4,-4,-7,-9,7,-4110
489954450,0,4,1,-6,-8,18,-4082
489955450,0,-1,0,-11,-25,14,-4099
489956450,0,1,-2,-9,-17,12,-4086
489957450,0,5,-9,-7,-12,7,-4088
489958450,0,-1,-5,-6,-2,3,-4089
489959450,0,6,-6,-7,-14,3,-4084
489960451,0,0,2,-6,-8,5,-4091
489961452,0,7,-5,-9,-14,14,-4110
489962450,0,8,-4,-8,-10,12,-4095
489963450,0,6,-7,-10,-5,11,-4081
489964450,0,3,-1,-6,-16,8,-4078
489965450,0,4,-6,-5,-17,6,-4098
489966450,0,5,3,-7,-14,9,-4072
489967450,0,0,-6,-10,-9,13,-4087
489968450,0,3,-10,-7,-6,18,-4080
489969450,0,2,-3,-5,-24,18,-4076
489970450,0,1,-7,-8,-12,13,-4092
489971450,0,4,2,-5,-8,9,-4086
489972450,0,5,-5,-12,-31,0,-4089
489973450,0,-1,-4,-14,-5,0,-4093
489974450,0,8,-2,-9,-12,-1,-4096
489975450,0,5,-9,-3,-21,7,-4098
489976450,0,0,-3,-3,-21,23,-4087
489977450,0,2,0,0,-25,12,-4074
489978450,0,4,-7,-5,-11,9,-4094
489979450,0,3,-3,-5,-26,11,-4089
489980450,0,10,-3,-4,-30,9,-4095
489981450,0,11,-1,-7,1,12,-4105
489982450,0,4,-4,-11,-15,-4,-4082
489983450,0,-2,-1,-10,-23,8,-4090
489984450,0,3,-1,-2,-15,28,-4094
489985450,0,3,-4,-7,-19,7,-4090
489986450,0,9,0,-6,-23,7,-4092
489987450,0,2,1,-5,-8,25,-4084
489988450,0,6,-7,-5,-18,8,-4095
489989450,0,5,-10,-13,-8,10,-4090
489990450,0,3,-4,-6,-25,13,-4085
489991450,0,5,-6,-3,-12,10,-4083
489992450,0,6,-9,-3,1,14,-4081
489993450,0,1,-5,-7,-8,0,-4088
489994450,0,7,-2,-5,-10,15,-4088
489995450,0,0,-4,-9,-24,9,-4075
489996450,0,3,0,-3,-12,2,-4087
489997450,0,3,-9,-5,-11,6,-4083
489998450,0,4,-1,-5,-21,10,-4104
489999450,0,5,-5,-6,-10,2,-4101
490000450,0,3,-5,-5,-10,22,-4095
490001450,0,6,-2,-8,-11,10,-4106
490002450,0,3,-9,-7,7,6,-4083
490003450,0,5,-6,-6,-19,10,-4085
490004450,0,7,-4,-7,-7,18,-4091
490005450,0,11,-2,-10,-16,17,-4078
490006450,0,1,2,-13,-14,17,-4073
490007450,0,4,-11,-10,-15,-5,-4090
490008450,0,6,-4,-11,-32,9,-4090
490009450,0,-2,-4,-5,-13,8,-4095
490010450,0,6,-6,-11,-13,5,-4097
490011450,0,6,-2,-3,-26,0,-4078
490012450,0,3,-6,-8,-7,11,-4097
490013450,0,4,-1,-5,-1,0,-4107
490014450,0,5,-7,-3,-15,10,-4099
490015450,0,7,-3,-5,-22,10,-4088
490016450,0,1,-1,-8,-12,13,-4092
490017450,0,6,-5,-12,-12,7,-4090
490018450,0,9,0,-5,2,16,-4091
490019450,0,7,-1,-6,1,12,-4099
490020450,0,7,-7,-13,-6,10,-4070
490021450,0,8,-6,-5,-11,4,-4088
490022450,0,2,-3,-8,-3,15,-4099
490023450,0,3,-2,-7,-25,-4,-4092
490024450,0,3,0,-4,-17,6,-4107
490025450,0,2,-4,-9,-19,12,-4094
490026450,0,4,-6,-6,-22,3,-4098
490027450,0,3,-4,-7,-24,12,-4101
490028450,0,2,-1,-10,-17,-5,-4083
490029450,0,4,-5,-10,-10,14,-4094
490030450,0,2,-4,-9,-25,12,-4090
490031450,0,7,-9,-11,-16,8,-4090
490032450,0,7,-7,-11,-1,2,-4100
490033450,0,3,0,-2,-2,24,-4094
490034450,0,8,-14,-8,-9,-7,-4100
490035450,0,3,-2,-4,-27,24,-4098
490036450,0,2,-5,-7,-24,-1,-4086
490037450,0,5,-8,-11,-19,14,-4078
490038450,0,5,-2,-8,-13,19,-4092
490039450,0,9,-8,-10,-6,1,-4102
490040450,0,8,-4,-9,-28,-3,-4077
490041450,0,9,-8,-10,-21,15,-4069
490042450,0,3,1,-5,-13,12,-4082
490043450,0,1,-1,-9,-3,17,-4076
490044450,0,4,-5,-7,-27,17,-4091
490045450,0,2,-4,-9,-18,5,-4083
490046450,0,-1,-2,-8,-2,-2,-4098
490047450,0,2,-2,-9,-20,9,-4101
490048450,0,3,-4,-5,-6,11,-4079
490049450,0,2,1,-10,-15,14,-4074
490050450,0,9,-5,-8,-25,11,-4094
490051450,0,10,-1,-10,-24,1,-4086
490052450,0,4,-8,-6,-5,21,-4093
490053450,0,3,-4,-6,-7,13,-4090
490054450,0,7,-6,-11,-17,21,-4091
490055450,0,2,-1,-4,-8,10,-4092
490056450,0,5,0,-4,-28,8,-4092
490057450,0,3,-6,-5,-11,-3,-4091
490058450,0,2,-4,-2,-16,10,-4100
490059450,0,7,1,-4,-13,13,-4096
490060450,0,7,-2,-8,-22,6,-4096
490061450,0,7,-9,-7,-15,10,-4097
490062450,0,0,-6,-6,-8,6,-4100
490063450,0,5,-1,-5,-15,12,-4097
490064450,0,5,4,-4,-17,13,-4101
490065450,0,-1,0,-5,-21,10,-4100
490066450,0,10,-8,-6,-10,7,-4098
490067450,0,5,-1,-12,-11,-1,-4095
490068450,0,4,-7,-2,-11,8,-4101
490069450,0,8,-2,-12,-14,16,-4100
490070450,0,4,-7,-12,-13,14,-4098
490071450,0,7,-6,-7,-15,7,-4089
490072450,0,1,-5,-6,-18,0,-4093
490073450,0,3,-7,-5,0,1,-4093
490074450,0,1,-1,-8,-14,23,-4088
490075450,0,9,-3,-7,-24,18,-4099
490076450,0,2,-7,-4,-23,6,-4094
490077450,0,3,-1,-5,-24,7,-4099
490078450,0,7,-5,-6,-14,7,-4090
490079450,0,2,-6,-13,-13,8,-4079
490080450,0,2,1,-4,-18,-1,-4097
490081450,0,8,-3,-4,-15,6,-4099
490082450,0,6,-5,-11,-2,8,-4079
490083450,0,3,1,-9,-9,18,-4087
490084450,0,9,-4,-13,4,2,-4096
490085450,0,8,-7,-7,-15,6,-4083
490086450,0,3,1,-3,-8,14,-4089
490087450,0,6,-3,-9,-5,17,-4094
490088450,0,2,-3,-3,-23,9,-4098
490089450,0,9,-1,-5,-17,20,-4102
490090450,0,6,-1,-10,-21,18,-4083
490091450,0,1,-1,-7,-5,3,-4104
490092450,0,5,-14,-3,-22,3,-4075
490093450,0,3,-4,-1,-22,9,-4079
490094450,0,-8,-1,-5,-10,7,-4092
490095450,0,7,-4,-9,-9,18,-4064
490096450,0,2,-4,-5,-13,16,-4082
490097450,0,2,-3,-2,-24,20,-4099
490098450,0,10,-4,-4,-3,12,-4093
490099450,0,8,-6,-4,-35,-2,-4089
490100450,0,5,-2,-6,-15,0,-4096
490101450,0,3,-1,-5,-20,7,-4096
490102450,0,6,-4,-10,-23,18,-4096
490103450,0,10,-9,-8,-18,25,-4094
490104450,0,-1,-2,-10,-19,9,-4082
490105450,0,3,2,-10,-24,18,-4085
490106450,0,-1,-3,-7,-12,4,-4093
490107450,0,8,1,-9,-20,16,-4085
490108450,0,5,-3,-9,-27,-3,-4092
490109450,0,5,-3,-11,-18,18,-4090
490110450,0,1,-3,-10,-18,22,-4102
490111450,0,3,-2,-7,-14,8,-4086
490112450,0,4,-8,-4,-14,6,-4092
490113450,0,5,-8,-5,-27,20,-4094
490114450,0,2,-7,-5,-20,6,-4082
490115450,0,2,1,-5,-21,-6,-4076
490116450,0,8,-6,-6,-20,7,-4083
490117450,0,4,-5,-10,-9,19,-4081
490118450,0,1,-6,-6,-21,9,-4098
490119450,0,13,-6,-6,-28,28,-4087
490120450,0,8,0,-6,-17,14,-4088
490121450,0,6,-7,-4,-16,-2,-4075
490122450,0,5,-1,-7,-9,23,-4087
490123450,0,1,-6,-7,-15,6,-4069
490124450,0,4,-2,-10,-5,17,-4098
490125450,0,5,-6,-6,-14,11,-4094
490126450,0,5,-1,-12,-18,7,-4086
490127450,0,3,-6,-8,-25,8,-4096
490128450,0,3,-3,-8,-13,19,-4090
490129450,0,5,-2,-6,-9,0,-4097
490130450,0,7,-4,-8,-14,1,-4086
490131450,0,4,-3,-9,-17,-3,-4091
490132450,0,7,-4,-13,-11,9,-4092
490133450,0,4,-5,-8,-20,7,-4109
490134450,0,3,0,-3,-12,-11,-4112
490135450,0,4,-9,-4,-4,2,-4088
490136450,0,7,-1,-9,-1,14,-4108
490137450,0,5,-6,-5,-15,15,-4097
490138450,0,-2,-4,-7,-22,6,-4080
490139450,0,-1,-2,-6,-11,1,-4099
490140450,0,-1,-6,-1,-27,7,-4092
490141450,0,2,-1,-6,-17,18,-4099
490142450,0,4,-5,-6,-18,6,-4087
490143450,0,4,-2,-9,-36,7,-4097
490144450,0,6,-3,-9,-15,0,-4089
490145450,0,3,-4,-7,-13,17,-4097
490146450,0,3,-7,-8,-21,14,-4086
490147450,0,3,1,-8,-25,9,-4077
490148450,0,1,-11,-9,-33,16,-4088
490149450,0,2,-5,-9,-28,15,-4091
490150450,0,4,-3,-10,-12,21,-4089
490151450,0,2,-6,-8,-12,-2,-4089
490152450,0,4,-5,-10,-11,5,-4110
490153450,0,5,-5,-3,-15,19,-4089
490154450,0,6,-2,-5,-14,23,-4079
490155450,0,8,-7,-12,-22,26,-4095
490156450,0,3,-4,-8,-26,21,-4107
490157450,0,8,-2,-4,-25,22,-4100
490158450,0,1,-2,-6,-5,0,-4101
490159450,0,6,-5,-7,-14,18,-4097
490160450,0,2,-1,-3,-4,18,-4091
490161450,0,2,-3,-11,-9,8,-4079
490162450,0,5,-4,-5,-17,4,-4091
490163450,0,0,-1,-2,-20,9,-4088
490164450,0,8,-5,-8,-15,20,-4093
490165450,0,7,1,-5,-22,15,-4093
490166450,0,5,-3,-6,-17,10,-4088
490167450,0,6,-8,-8,1,10,-4076
490168450,0,1,-2,-8,-14,0,-4085
490169450,0,5,-7,-10,-13,5,-4098
490170450,0,3,-4,-9,-12,-1,-4090
490171450,0,6,-3,-9,-7,34,-4103
490172450,0,6,-7,-7,-10,3,-4097
490173450,0,-1,-3,-3,-19,23,-4081
490174450,0,5,-1,-2,-18,4,-4082
490175450,0,6,-3,-5,-18,18,-4095
490176450,0,0,-3,-6,-21,15,-4090
490177450,0,4,-7,-6,-18,10,-4098
490178450,0,0,-1,-3,-18,1,-4087
490179450,0,6,-1,-2,-13,11,-4084
490180450,0,0,-6,-6,-19,11,-4091
490181450,0,3,-4,-11,-14,2,-4087
490182450,0,5,-1,-7,-4,1,-4092
490183450,0,-1,-8,-6,3,13,-4101
490184450,0,-1,6,3,-16,20,-4088
490185450,0,7,-7,-6,-3,-1,-4101
490186450,0,3,-6,-8,-16,15,-4084
490187450,0,1,-6,-6,-16,4,-4089
490188450,0,6,-6,-5,-16,10,-4081
490189450,0,5,1,-6,-23,-1,-4086
490190450,0,5,-2,-2,-21,1,-4095
490191450,0,4,0,-2,-14,10,-4094
490192450,0,1,-3,-5,-1,-10,-4086
490193450,0,1,-8,-4,-16,8,-4098
490194450,0,4,-3,-4,-10,-2,-4107
490195450,0,7,-7,-4,-6,9,-4093
490196450,0,4,-2,-7,-20,4,-4090
490197450,0,6,-9,-4,-13,6,-4079
490198450,0,5,0,-6,-14,9,-4088
490199450,0,5,-5,-4,-26,8,-4088
490200450,0,1,-5,-3,-4,9,-4089
490201450,0,4,-3,-8,-6,8,-4089
490202450,0,2,-5,-8,-2,19,-4100
490203450,0,0,-6,-9,-22,17,-4097
490204450,0,6,-11,-9,-20,7,-4083
490205450,0,4,-3,-11,-20,-2,-4084
490206450,0,3,-4,-7,-11,9,-4086
490207450,0,3,-3,-6,1,18,-4080
490208450,0,-2,-3,-2,-18,10,-4098
490209450,0,3,-8,-5,-1,6,-4091
490210450,0,4,-5,-5,-25,-10,-4092
490211450,0,5,2,-4,-14,3,-4080
490212450,0,8,-10,-5,-28,-1,-4090
490213450,0,2,-1,-3,-9,1,-4091
490214450,0,9,-5,-8,-21,5,-4082
490215450,0,2,-10,-10,-31,3,-4095
490216450,0,2,-1,-10,-5,4,-4092
490217450,0,5,-11,-9,-6,8,-4093
490218450,0,5,-5,-8,-10,12,-4091
490219450,0,1,-4,-10,-15,3,-4087
490220450,0,-1,-5,-2,-10,14,-4095
490221450,0,4,-2,-4,-24,5,-4092
490222450,0,3,-4,-10,-12,10,-4082
490223450,0,9,-5,-9,-7,-4,-4089
490224450,0,1,-3,-2,-10,9,-4102
490225450,0,-1,-3,-3,-14,19,-4102
490226450,0,7,-5,-4,-6,15,-4091
490227450,0,11,-4,-4,-16,10,-4078
490228450,0,4,-5,-7,-6,7,-4087
490229450,0,6,-6,-5,-14,7,-4087
490230450,0,10,1,-9,-4,-3,-4089
490231450,0,6,-6,-10,7,-11,-4107
490232450,0,4,-4,-7,-16,-3,-4086
490233450,0,2,-1,-5,-10,5,-4089
490234450,0,-1,-4,-5,1,17,-4086
490235450,0,5,-3,-9,-11,-4,-4094
490236450,0,6,-7,-7,-4,-7,-4093
490237450,0,3,-1,-1,-24,11,-4084
490238450,0,5,-2,-7,-11,3,-4094
490239450,0,6,-6,-5,-16,7,-4086
490240450,0,-4,-1,-2,-32,-3,-4083
490241450,0,2,-6,-2,-12,-11,-4091
490242450,0,4,-5,-2,-23,17,-4089
490243450,0,1,-3,-3,-18,13,-4090
490244450,0,1,-12,-8,-33,1,-4086
490245450,0,-2,-1,-8,-21,6,-4086
490246450,0,6,-1,-3,-7,4,-4085
490247450,0,6,-2,-7,-10,10,-4082
490248450,0,3,0,-3,2,7,-4084
490249450,0,7,-4,-2,-1,3,-4083
490250450,0,2,-4,-8,-11,8,-4082
490251450,0,5,-6,-9,-17,1,-4082
490252450,0,0,-2,-10,-6,5,-4090
490253450,0,0,3,-3,-13,12,-4106
490254450,0,4,-4,-9,-8,20,-4087
490255450,0,-2,-4,-10,5,12,-4102
490256450,0,3,-1,-10,-8,17,-4081
490257450,0,0,-5,-5,-22,-2,-4079
490258450,0,8,-8,-7,-24,14,-4093
490259450,0,4,-1,-9,-24,9,-4076
490260450,0,9,-2,-7,-17,7,-4088
490261450,0,10,-2,-6,-30,16,-4092
490262450,0,3,1,-4,-21,-1,-4077
490263450,0,10,-9,-8,-32,4,-4092
490264450,0,7,2,-7,-11,24,-4086
490265450,0,3,-3,-11,-21,10,-4080
490266450,0,-5,-1,-8,-9,0,-4096
490267450,0,0,-1,-6,-17,6,-4094
490268450,0,6,-5,-8,-16,18,-4090
490269450,0,6,-1,-6,-7,4,-4095
490270450,0,4,-8,-8,-17,-3,-4098
490271450,0,0,-1,-4,-20,16,-4111
490272450,0,-1,-5,-5,-10,16,-4091
490273450,0,5,0,-7,-13,0,-4073
490274450,0,5,0,-5,-15,6,-4092
490275450,0,4,-7,-9,-30,11,-4088
490276450,0,5,-3,-10,-12,11,-4086
490277450,0,3,-6,-13,-24,2,-4097
490278450,0,6,-3,-6,-20,8,-4097
490279450,0,3,1,-4,-21,10,-4087
490280450,0,6,3,-4,-20,25,-4082
490281450,0,6,-5,-3,-6,22,-4081
490282450,0,-1,-6,-4,-28,6,-4099
490283450,0,4,-2,-9,-15,15,-4086
490284450,0,5,-5,-5,-8,9,-4089
490285450,0,-7,-3,-7,-2,16,-4086
490286450,0,4,-6,-5,-17,-6,-4092
490287450,0,6,-6,-9,-4,7,-4092
490288450,0,7,-3,-7,-8,0,-4111
490289450,0,5,-4,-7,-21,14,-4104
490290450,0,5,0,-7,-5,15,-4088
490291450,0,0,-3,-5,-38,7,-4099
490292450,0,3,-3,-5,-18,7,-4095
490293450,0,1,-1,-5,-12,16,-4091
490294450,0,7,-5,-6,-3,0,-4092
490295450,0,6,-3,-4,-14,7,-4107
490296450,0,4,1,-11,-27,9,-4102
490297450,0,1,-4,-6,-14,4,-4100
490298450,0,7,-1,-7,-30,23,-4084
490299450,0,5,-3,-5,-15,9,-4076
490300450,0,4,-5,-7,-24,1,-4093
490301450,0,6,-1,-8,-16,4,-4093
490302450,0,6,-3,-5,1,11,-4090
490303450,0,2,-6,-5,-6,10,-4088
490304450,0,5,0,-12,-22,-2,-4097
490305450,0,6,-8,-7,6,6,-4084
490306450,0,6,-4,-7,-17,7,-4075
490307450,0,5,0,-5,-8,-9,-4074
490308450,0,8,-8,-7,-15,18,-4086
490309450,0,6,-5,-7,-13,3,-4094
490310450,0,4,-6,3,-26,6,-4099
490311450,0,9,-2,-4,-12,-2,-4087
490312450,0,7,-3,-5,-6,7,-4099
490313450,0,5,-10,-8,-8,12,-4090
490314450,0,5,-3,-6,-14,6,-4094
490315450,0,1,-3,-8,-5,2,-4090
490316450,0,6,-3,-7,-21,18,-4097
490317450,0,1,-1,-6,-21,-4,-4093
490318450,0,6,-9,-4,-15,14,-4090
490319450,0,1,-4,-6,-22,-9,-4089
490320450,0,6,-6,-2,-16,3,-4111
490321450,0,7,-5,-8,-15,12,-4104
490322450,0,6,-1,-7,-30,5,-4081
490323450,0,9,-6,-6,-16,6,-4094
490324450,0,3,-2,-7,-21,21,-4085
490325450,0,7,-4,-11,-9,12,-4083
490326450,0,0,-5,-9,-14,9,-4081
490327450,0,11,-5,-11,-13,15,-4077
490328450,0,6,4,-8,-17,6,-4083
490329450,0,4,-8,-10,-21,3,-4093
490330450,0,5,1,-11,-26,7,-4096
490331450,0,4,-5,-8,-24,11,-4093
490332450,0,6,-10,-9,0,11,-4077
490333450,0,9,-6,-6,-9,12,-4093
490334450,0,7,-6,-5,-26,15,-4080
490335450,0,3,-3,-6,-8,-3,-4087
490336450,0,-2,-3,-2,-8,18,-4105
490337450,0,7,-8,-3,-28,13,-4090
490338450,0,1,-8,-9,-3,3,-4094
490339450,0,2,-4,-7,-16,-4,-4095
490340450,0,4,-7,-5,-4,1,-4114
490341450,0,1,0,-9,7,6,-4094
490342450,0,6,0,-11,-20,-7,-4101
490343450,0,1,-6,-9,-16,12,-4092
490344450,0,3,-2,-6,-12,-4,-4102
490345450,0,5,-6,-9,-30,-9,-4098
490346450,0,6,0,-5,12,13,-4098
490347450,0,8,-7,-6,-7,-2,-4091
490348450,0,0,-3,-9,-16,15,-4089
490349450,0,-4,2,-8,-20,27,-4078
490350450,0,4,-6,-8,-19,6,-4100
490351450,0,2,-6,-8,-16,10,-4080
490352450,0,8,-3,-10,-11,15,-4105
490353450,0,7,-7,-8,-20,6,-4083
490354450,0,8,-5,-5,-9,12,-4093
490355450,0,8,-1,-6,-17,7,-4102
490356450,0,10,-5,-7,-3,14,-4095
490357450,0,3,1,-2,-20,10,-4082
490358450,0,12,-3,-3,-8,16,-4083
490359450,0,5,-6,-6,-2,12,-4093
490360450,0,0,0,-4,-8,9,-4095
490361450,0,3,-7,-5,-16,1,-4087
490362450,0,6,-5,-6,-21,10,-4094
490363450,0,4,-7,-8,-27,9,-4093
