# auto-battlebot velocity jig
# columns: t_us,count,gx,gy,gz,ax,ay,az  (raw int16 imu)
# encoder: quadrature x4 (constant column if unplugged)
# sample_rate_hz=1000 gyro_dps_per_lsb=0.070 accel_g_per_lsb=0.000244
545779261,0,5,-8,-9,-29,9,-4086
545780255,0,6,-4,-2,-28,11,-4086
545781255,0,6,-5,-6,-33,1,-4094
545782255,0,5,-1,-1,-43,9,-4083
545783255,0,7,-12,-11,-24,-1,-4077
545784255,0,9,-6,-2,-7,5,-4096
545785255,0,8,-8,-4,-44,16,-4107
545786255,0,7,-12,-8,-39,17,-4093
545787255,0,11,-11,-6,-12,22,-4102
545788255,0,7,-8,-11,-27,0,-4100
545789255,0,8,-12,-10,-40,12,-4081
545790255,0,-1,-4,-8,-10,5,-4088
545791255,0,13,-10,-8,23,15,-4119
545792255,0,10,-21,-8,-1,25,-4102
545793255,0,6,-10,-6,-50,-10,-4087
545794255,0,7,-13,-2,-26,2,-4071
545795255,0,7,-7,-2,-18,-1,-4101
545796255,0,6,-6,-5,-17,8,-4094
545797255,0,8,-15,0,-15,3,-4111
545798255,0,7,-9,-6,-29,9,-4058
545799255,0,2,32,-7,-163,102,-3374
545800255,0,-105,130,6,-2303,-860,-1434
545801255,0,118,-48,-15,3764,834,-8355
545802255,0,32,-140,-15,929,7,-3289
545803255,0,51,-95,-5,-1828,-827,-3885
545804255,0,43,-30,-6,-866,-45,-3522
545805255,0,-15,40,4,-58,-71,-4009
545806255,0,4,10,2,281,-207,-4362
545807255,0,-11,-7,-5,65,151,-4260
545808255,0,9,-14,-7,-297,201,-4418
545809255,0,25,-8,-2,-111,124,-4178
545810255,0,5,-10,-2,125,-113,-3944
545811255,0,7,-26,-16,-66,22,-4125
545812271,0,5,-16,-8,-143,34,-4118
545813255,0,12,-16,-14,-105,35,-4087
545814255,0,7,0,-10,-146,53,-4084
545815255,0,8,-2,-7,-35,-31,-4060
545816255,0,14,-3,0,47,-130,-4012
545817255,0,-1,-3,0,88,6,-4055
545818255,0,5,-9,-2,63,92,-4087
545819255,0,14,-12,-8,96,132,-4155
545820255,0,10,-18,-5,78,20,-4114
545821255,0,18,-21,-10,3,-6,-4034
545822255,0,14,-21,-7,-70,-28,-4066
545823255,0,14,-21,-4,-85,-42,-4058
545824255,0,9,-19,-1,-90,-40,-4062
545825255,0,8,-10,-3,-49,-9,-4069
545826255,0,4,-15,-8,-20,25,-4115
545827255,0,8,-9,-2,2,43,-4123
545828255,0,8,-17,-6,-47,45,-4110
545829255,0,11,-18,-6,-72,22,-4115
545830255,0,10,-14,-11,-83,3,-4111
545831255,0,6,-10,-5,-56,-1,-4098
545832255,0,10,-11,-1,-43,-8,-4095
545833255,0,4,-6,-5,-26,11,-4109
545834255,0,14,-11,1,-27,21,-4095
545835255,0,14,-6,-6,-43,17,-4092
545836255,0,9,-6,-3,-11,8,-4088
545837255,0,11,-14,-10,21,-2,-4101
545838255,0,6,-6,-10,-21,-8,-4076
545839255,0,5,-11,-1,-22,-2,-4065
545840255,0,8,-10,-5,-34,10,-4073
545841255,0,8,-9,-3,-13,24,-4070
545842255,0,15,-18,-4,-2,14,-4090
545843255,0,17,-20,-10,-41,2,-4092
545844255,0,10,-14,-8,-46,-4,-4070
545845255,0,10,-15,-8,-11,4,-4094
545846255,0,5,-9,-1,-18,-5,-4085
545847255,0,4,-10,-6,-27,2,-4083
545848255,0,7,-13,-9,-42,28,-4086
545849255,0,8,-8,-3,-43,17,-4106
545850255,0,7,-10,-8,-45,14,-4083
545851255,0,5,-9,-7,-37,24,-4098
545852255,0,3,-4,-5,-4,29,-4086
545853255,0,9,-6,-11,-14,14,-4096
545854255,0,5,-8,-7,-18,13,-4092
545855255,0,4,-10,-5,-57,14,-4078
545856255,0,12,-11,-11,-9,6,-4115
545857255,0,13,-7,-6,-41,9,-4070
545858255,0,13,-12,-4,-53,0,-4068
545859255,0,11,-5,-6,-39,-1,-4072
545860255,0,8,-6,-10,-14,12,-4090
545861255,0,10,-7,-5,-4,23,-4089
545862255,0,5,-6,-3,-21,27,-4096
545863255,0,2,-9,-4,-27,3,-4096
545864255,0,10,-16,-7,-17,21,-4096
545865255,0,10,-12,-9,-20,6,-4078
545866255,0,9,-11,-6,-40,16,-4077
545867255,0,3,-2,-4,-35,4,-4077
545868255,0,11,-5,-7,-20,-2,-4062
545869255,0,6,-9,-6,-31,0,-4079
545870255,0,10,-11,-5,-42,16,-4090
545871255,0,3,-10,-10,-51,3,-4076
545872255,0,6,-9,-7,-24,8,-4083
545873255,0,0,-5,-7,-25,10,-4077
545874255,0,7,-14,-7,-20,12,-4082
545875255,0,7,-7,-7,-32,15,-4087
545876255,0,11,-6,-9,-48,1,-4096
545877255,0,8,-10,-8,-25,19,-4115
545878255,0,2,2,-2,-32,3,-4095
545879255,0,4,-4,-8,-43,10,-4110
545880255,0,9,-2,-11,-32,7,-4081
545881255,0,8,-6,-8,-22,2,-4089
545882255,0,9,-6,-3,-22,6,-4103
545883255,0,4,1,-2,-26,-3,-4080
545884255,0,3,-2,-5,-23,1,-4089
545885255,0,3,-6,-5,-31,13,-4078
545886255,0,7,-3,-5,-37,10,-4075
545887255,0,6,-2,-10,-34,7,-4071
545888255,0,13,-10,-13,-19,8,-4091
545889255,0,4,-2,-9,-26,4,-4088
545890255,0,7,-8,-4,-27,5,-4089
545891255,0,2,-1,-4,-36,17,-4091
545892255,0,5,-4,-4,-33,3,-4084
545893255,0,2,-9,-5,-15,11,-4091
545894255,0,4,-3,-4,-31,-3,-4072
545895255,0,3,-1,-3,-29,5,-4086
545896255,0,3,-5,-8,-27,18,-4097
545897255,0,7,-4,-7,-17,25,-4105
545898255,0,7,-7,-8,-20,6,-4097
545899255,0,6,-1,-5,-22,13,-4099
545900255,0,-1,-1,-7,-35,22,-4094
545901255,0,7,-7,-8,-27,12,-4097
545902255,0,4,0,-11,-25,9,-4089
545903255,0,5,-5,-9,-24,-5,-4088
545904255,0,6,-9,-8,-44,1,-4083
545905255,0,0,3,-2,-32,-2,-4073
545906255,0,4,-1,-10,-26,10,-4087
545907255,0,5,0,-4,-48,14,-4075
545908255,0,1,-5,-3,-26,17,-4079
545909255,0,2,1,-8,-23,-1,-4070
545910255,0,9,0,-4,-32,9,-4085
545911255,0,9,-1,-7,-22,7,-4083
545912255,0,8,-2,-11,-18,6,-4080
545913255,0,4,-6,-6,-25,6,-4082
545914255,0,2,2,-8,-20,-5,-4085
545915255,0,2,-1,-6,-14,4,-4076
545916255,0,-1,-2,-10,-19,-2,-4095
545917255,0,5,-6,-6,-38,5,-4090
545918255,0,1,-4,-6,-28,6,-4085
545919255,0,2,-1,-9,-22,-5,-4082
545920255,0,10,1,-12,-26,11,-4078
545921255,0,4,-7,-9,-26,3,-4094
545922255,0,5,-6,-5,-31,5,-4108
545923255,0,3,-1,-7,-34,7,-4092
545924255,0,7,-9,-8,-22,15,-4095
545925255,0,4,-7,-9,-9,24,-4092
545926255,0,1,-7,-4,-26,16,-4104
545927255,0,4,-6,-9,-36,9,-4108
545928255,0,4,-2,-5,-27,5,-4111
545929255,0,4,1,-4,-37,4,-4087
545930255,0,5,-7,-6,-36,10,-4093
545931255,0,4,-1,-9,-25,7,-4106
545932255,0,-2,3,-3,-28,18,-4091
545933255,0,7,-5,-7,-38,2,-4093
545934255,0,3,0,-7,-29,3,-4085
545935255,0,5,-7,-8,-11,6,-4091
545936255,0,4,2,-1,-27,10,-4093
545937255,0,5,-1,-7,-29,4,-4085
545938255,0,5,-6,-9,-29,11,-4093
545939255,0,8,-1,-7,-22,4,-4089
545940255,0,3,-6,-6,-23,13,-4072
545941255,0,4,-8,-11,-17,15,-4083
545942255,0,5,0,-5,-18,16,-4095
545943255,0,5,-11,-9,-21,-1,-4086
545944255,0,6,-5,-9,-5,12,-4089
545945255,0,9,-2,-6,-23,15,-4117
545946255,0,5,-7,-9,-34,6,-4106
545947255,0,6,-2,-8,-21,2,-4100
545948255,0,4,-5,-1,-24,11,-4096
545949255,0,3,0,-3,-45,14,-4101
545950255,0,6,-3,-5,-23,17,-4096
545951255,0,3,-5,-7,-24,4,-4078
545952255,0,5,-1,-7,-45,15,-4085
545953255,0,7,-4,-7,-27,11,-4093
545954255,0,3,-6,-6,-38,9,-4074
545955255,0,-2,0,-1,-35,10,-4088
545956255,0,4,-4,-8,-19,10,-4084
545957255,0,8,-8,-5,-25,26,-4082
545958255,0,5,-2,-7,-18,3,-4088
545959255,0,-1,-4,-4,-27,8,-4083
545960255,0,-2,-3,-14,-27,6,-4103
545961255,0,4,-8,-9,-31,3,-4088
545962255,0,3,-10,-4,-38,8,-4099
545963255,0,6,-2,-7,-29,9,-4099
545964255,0,8,-1,-8,-38,12,-4096
545965255,0,8,-6,-9,-39,7,-4084
545966255,0,3,-7,-6,-27,8,-4093
545967255,0,8,-6,-10,-35,0,-4092
545968255,0,5,-5,-3,-30,0,-4091
545969255,0,4,1,-7,-26,-1,-4088
545970255,0,4,-12,-5,-32,17,-4091
545971255,0,4,-4,-10,-29,9,-4094
545972255,0,6,-8,-6,-22,0,-4097
545973255,0,0,-4,-5,-16,8,-4085
545974255,0,6,-2,0,-36,9,-4100
545975255,0,7,-5,-7,-11,-3,-4091
545976255,0,5,-1,-8,-28,4,-4084
545977255,0,1,-7,-2,-26,-1,-4081
545978255,0,8,-6,-10,-30,-10,-4085
545979255,0,7,-5,-6,-28,18,-4096
545980255,0,6,-9,-9,-11,9,-4079
545981255,0,11,-12,-8,-27,-3,-4093
545982255,0,4,-5,-8,-27,12,-4088
545983255,0,5,-7,-8,-35,2,-4085
545984255,0,3,-7,-5,-31,9,-4095
545985255,0,2,-9,-9,-28,5,-4068
545986255,0,8,-12,-5,-21,8,-4085
545987255,0,-2,-2,-6,-38,9,-4075
545988255,0,6,-2,-5,-31,9,-4093
545989255,0,11,0,-8,-25,14,-4080
545990255,0,1,-5,-5,-16,-2,-4098
545991255,0,10,-7,-7,-43,6,-4082
545992255,0,6,-5,-11,-17,13,-4093
545993255,0,5,-8,-8,-14,10,-4091
545994255,0,8,-15,-7,-27,10,-4094
545995255,0,4,-7,0,-24,9,-4087
545996255,0,-1,-2,-5,-21,8,-4084
545997255,0,7,-6,-9,-35,1,-4082
545998255,0,0,-3,-8,-15,15,-4083
545999255,0,8,-11,-8,-6,8,-4098
546000255,0,3,-5,-8,-46,13,-4099
546001255,0,2,-10,-4,-14,17,-4090
546002255,0,5,-5,-10,-34,7,-4102
546003255,0,5,-8,-6,-36,-4,-4083
546004255,0,6,-13,-11,-24,11,-4087
546005255,0,5,-1,-9,-23,6,-4101
546006255,0,-1,-8,-8,-19,12,-4106
546007255,0,7,-15,-4,-37,10,-4095
546008255,0,9,-11,-11,-23,5,-4112
546009255,0,4,-8,-5,-23,10,-4093
546010255,0,6,-18,-6,-31,5,-4097
546011255,0,10,-16,-4,-25,7,-4095
546012255,0,14,-17,-4,-27,-1,-4088
546013255,0,3,-11,-5,-30,9,-4109
546014255,0,4,-12,-9,-23,13,-4086
546015255,0,7,-15,-7,-21,-1,-4097
546016255,0,4,-11,-7,-34,15,-4100
546017255,0,8,-14,-6,-29,5,-4088
546018255,0,6,-15,-8,-34,11,-4077
546019255,0,-1,-10,-4,-46,14,-4094
546020255,0,6,-14,-9,-22,11,-4087
546021255,0,9,-11,-8,-24,12,-4090
546022255,0,5,-9,-6,-38,5,-4089
546023255,0,5,-12,-6,-19,1,-4091
546024255,-1,1,-10,-4,-29,2,-4091
546025255,-1,9,-11,-7,-19,12,-4082
546026255,-1,6,-15,-4,-32,15,-4085
546027255,-1,6,-9,-7,-32,17,-4095
546028255,-1,3,-5,-3,-27,14,-4090
546029255,-1,10,-13,-8,-23,14,-4094
546030255,-1,7,-13,-6,-33,5,-4094
546031255,-1,15,-12,-9,-17,6,-4101
546032255,-1,10,-13,-11,-17,12,-4100
546033255,-1,7,-4,-7,-27,9,-4102
546034255,-1,8,-9,-8,-47,1,-4081
546035255,-1,8,-10,-5,-37,20,-4092
546036255,-1,4,-5,-2,-39,-1,-4100
546037255,-1,14,-12,-5,-30,4,-4090
546038255,-1,5,-4,-3,-29,11,-4102
546039255,-1,7,-12,0,-32,-3,-4080
546040255,-1,7,-11,-3,-45,10,-4103
546041255,-1,7,-6,-3,-32,12,-4097
546042255,-1,3,-12,-7,-27,4,-4069
546043255,-1,5,-8,-5,-32,14,-4092
546044255,-1,9,-8,-8,-35,16,-4088
546045255,-1,8,-8,-4,-28,10,-4087
546046255,-1,7,-9,-4,-45,-1,-4072
546047255,-1,7,-8,-8,-23,0,-4073
546048255,-1,8,-8,-4,-19,-9,-4094
546049255,-1,5,-13,-7,-32,6,-4082
546050255,-1,3,-14,-8,-30,6,-4094
546051255,-1,3,-3,-12,-52,2,-4097
546052255,-1,10,-5,0,-32,27,-4098
546053255,-1,5,-7,0,-27,6,-4081
546054255,-1,4,-6,-6,-32,-2,-4083
546055255,-1,5,-8,-8,-36,9,-4080
546056255,-1,4,-3,-4,-36,10,-4087
546057255,-1,3,-7,-6,-39,7,-4093
546058255,-1,8,-9,-11,-26,15,-4086
546059255,-1,0,-3,-10,-27,34,-4095
546060255,-1,3,-10,-8,-42,13,-4086
546061255,-1,9,-8,-8,-12,14,-4088
546062255,-1,5,1,-8,-29,1,-4083
546063255,-1,7,-4,-9,-44,36,-4080
546064255,-1,8,0,-8,-29,14,-4083
546065255,-1,7,-8,-10,-33,17,-4087
546066255,-1,9,-6,-12,-28,0,-4089
546067255,-1,5,-5,-11,-29,11,-4092
546068255,-1,4,-7,-7,-24,2,-4087
546069255,-1,4,-4,-6,-30,22,-4075
546070255,-1,6,-4,-6,-30,27,-4096
546071255,-1,6,-7,-11,-21,10,-4092
546072255,-1,2,-8,-6,-39,19,-4095
546073255,-1,7,-7,-4,-11,8,-4103
546074255,-1,1,-3,-5,-20,1,-4091
546075255,-1,2,-3,-6,-24,2,-4086
546076255,-1,5,-8,-8,-38,8,-4102
546077255,-1,-1,-8,-2,-38,17,-4077
546078255,-1,9,-3,-4,-21,-12,-4086
546079255,-1,7,-8,-7,-26,3,-4098
546080255,-1,4,-4,-7,-19,17,-4092
546081255,-1,7,-4,-5,-30,0,-4089
546082255,-1,7,-3,-3,-48,4,-4088
546083255,-1,0,1,-6,-50,2,-4101
546084255,-1,7,-10,-8,-30,-12,-4076
546085255,-1,2,0,-6,-23,9,-4089
546086255,-1,4,-6,-11,-33,4,-4086
546087255,-1,5,-4,-6,-29,-14,-4072
546088255,-1,1,1,-5,-44,6,-4088
546089255,-1,3,-1,-7,-27,-6,-4074
546090255,-1,3,0,-3,-53,1,-4081
546091255,-1,-1,-2,-8,-42,3,-4077
546092255,-1,-2,2,-7,-46,10,-4087
546093255,-1,1,3,-3,-35,5,-4086
546094255,-1,3,-1,-5,-26,21,-4101
546095255,-1,5,-1,-9,1,24,-4074
546096255,-1,4,4,-6,-44,23,-4090
546097255,-1,3,3,-5,-47,16,-4087
546098255,-1,2,0,-3,-31,12,-4085
546099255,-1,0,-2,-4,-9,16,-4084
546100255,-1,8,-2,-7,-26,34,-4086
546101255,-1,-3,1,-3,-39,10,-4087
546102255,-1,5,-5,-9,-31,6,-4092
546103255,-1,4,-3,-10,-27,21,-4088
546104255,-1,-1,4,-1,-15,2,-4094
546105255,-1,3,-2,-8,-31,22,-4108
546106255,-1,4,-2,-9,-46,25,-4100
546107255,-1,3,4,-4,-57,18,-4106
546108255,-1,5,-5,-7,-24,12,-4097
546109255,-1,3,-2,-9,-29,-5,-4107
546110255,-1,1,-1,-5,-26,11,-4096
546111255,-1,5,-5,-10,-35,5,-4088
546112255,-1,4,-5,-9,-34,11,-4106
546113255,-1,4,-7,-10,-45,-4,-4090
546114255,-1,6,2,-5,-23,1,-4090
546115255,-1,0,3,-4,-33,-2,-4086
546116255,-1,1,-3,-4,-45,-5,-4094
546117255,-1,1,0,-6,-41,6,-4068
546118255,-1,1,-2,-5,-32,2,-4072
546119255,-1,3,-8,-7,-29,-7,-4082
546120255,-1,-2,-1,-10,-40,12,-4089
546121255,-1,4,2,-10,-22,-5,-4082
546122255,-1,0,-4,-6,-24,4,-4077
546123255,-1,3,1,-5,-23,3,-4083
546124255,-1,1,1,-7,-12,1,-4096
546125255,-1,4,1,0,-27,-6,-4075
546126255,-1,7,-3,-4,-24,8,-4090
546127255,-1,4,3,-7,-29,5,-4089
546128255,-1,6,1,-6,-22,21,-4096
546129255,-1,2,0,-2,-23,17,-4108
546130255,-1,2,1,-7,-38,4,-4088
546131255,-1,2,-5,-12,-48,21,-4107
546132255,-1,9,-3,-10,-26,23,-4097
546133255,-1,6,-6,-4,-36,9,-4103
546134255,-1,0,-3,-13,-33,20,-4098
546135255,-1,7,-5,-2,-38,20,-4099
546136255,-1,3,0,-2,-40,13,-4076
546137255,-1,6,-3,-4,-41,28,-4080
546138255,-1,2,1,-5,-31,12,-4085
546139255,-1,3,2,-7,-29,29,-4098
546140255,-1,5,-7,-1,-36,21,-4086
546141255,-1,4,-2,-8,-26,3,-4086
546142255,-1,-1,-1,-10,-6,1,-4082
546143255,-1,4,-5,-11,-20,7,-4088
546144255,-1,5,-1,-7,-26,3,-4081
546145255,-1,7,-5,-8,-23,7,-4093
546146255,-1,5,-2,-7,-25,-8,-4087
546147255,-1,1,0,-4,-18,7,-4086
546148255,-1,5,-5,-11,-38,-8,-4084
546149255,-1,3,-5,-11,-25,3,-4096
546150255,-1,3,0,-8,-47,10,-4097
546151255,-1,6,-6,-6,-35,4,-4100
546152255,-1,2,4,-7,-37,5,-4098
546153255,-1,8,-3,-3,-40,10,-4098
546154255,-1,6,-3,-4,-23,2,-4086
546155255,-1,2,-2,-8,-29,-6,-4094
546156255,-1,1,1,-4,-45,-4,-4093
546157255,-1,5,-1,-6,-40,5,-4095
546158255,-1,5,-7,-15,-12,-1,-4089
546159255,-1,5,1,-6,-27,23,-4118
546160255,-1,5,2,-9,-32,0,-4094
546161255,-1,5,-7,-6,-42,2,-4104
546162255,-1,1,-2,-11,-36,10,-4110
546163255,-1,0,-3,-3,-29,13,-4088
546164255,-1,1,-8,-6,-29,-11,-4087
546165255,-1,0,2,-4,-30,-5,-4102
546166255,-1,11,-4,-9,-33,15,-4082
546167255,-1,11,-4,-6,-33,7,-4092
546168255,-1,3,-1,-4,-47,1,-4093
546169255,-1,5,1,-5,-27,4,-4105
546170255,-1,7,-1,-1,-47,1,-4091
546171255,-1,2,-4,-5,-31,-5,-4091
546172255,-1,-2,-3,-5,-25,13,-4090
546173255,-1,3,-2,-6,-19,15,-4087
546174255,-1,4,-3,-9,-28,6,-4088
546175255,-1,4,-1,-14,-27,0,-4089
546176255,-1,3,9,-6,-31,7,-4090
546177255,-1,8,-1,-7,-12,-1,-4088
546178255,-1,3,-2,-7,-29,-1,-4092
546179255,-1,0,-3,-7,-28,2,-4091
546180255,-1,6,-5,-12,-15,10,-4083
546181255,-1,5,-2,-12,-26,12,-4082
546182255,-1,-2,-7,-7,-29,9,-4093
546183255,-1,3,-3,-1,-35,8,-4104
546184255,-1,-1,-1,-10,-33,7,-4097
546185255,-1,3,-4,-8,-36,4,-4081
546186255,-1,-2,-1,-6,-26,6,-4103
546187255,-1,1,-7,-5,-20,17,-4083
546188255,-1,0,0,-3,-53,6,-4077
546189255,-1,1,3,-6,-26,9,-4083
546190255,-1,4,-1,-8,-32,24,-4092
546191255,-1,3,-6,-9,-25,5,-4100
546192255,-1,0,-1,-3,-32,20,-4079
546193255,-1,5,-4,-8,-33,15,-4071
546194255,-1,-6,-1,-6,-28,1,-4091
546195255,-1,4,-6,-8,-28,17,-4092
546196255,-1,5,-2,-10,-40,31,-4097
546197255,-1,5,3,-4,-26,19,-4095
546198255,-1,8,-5,-10,-18,11,-4093
546199255,-1,7,-8,-10,-16,9,-4088
546200255,-1,4,0,-11,-35,0,-4099
546201255,-1,2,-4,-7,-30,12,-4087
546202255,-1,0,-1,-5,-27,5,-4087
546203255,-1,8,-6,-2,-28,17,-4094
546204255,-1,4,-6,-5,-45,17,-4091
546205255,-1,2,2,-3,-38,23,-4098
546206255,-1,0,-3,-7,-40,0,-4093
546207255,-1,1,-2,-6,-33,8,-4093
546208255,-1,5,-7,-8,-38,5,-4105
546209255,-1,12,-8,-11,-27,0,-4090
546210255,-1,7,-10,-9,-44,12,-4100
546211255,-1,5,-3,-6,-21,3,-4091
546212255,-1,7,-6,-9,-37,6,-4083
546213255,-1,4,-1,-4,-28,9,-4106
546214255,-1,-1,-7,-4,-34,18,-4088
546215255,-1,1,-5,-5,-41,-6,-4091
546216255,-1,3,-3,-4,-34,6,-4107
546217255,-1,11,-6,-5,-32,19,-4086
546218255,-1,8,0,-7,-24,12,-4084
546219255,-1,2,-5,-10,-24,17,-4085
546220255,-1,7,-3,-6,-16,7,-4095
546221255,-1,2,-2,-4,-27,20,-4103
546222255,-1,2,-4,-7,-33,25,-4092
546223255,-1,2,-6,-7,-30,2,-4090
546224255,-1,2,-2,-7,-31,2,-4086
546225255,-1,-2,-7,-9,-34,2,-4085
546226255,-1,0,-8,-5,-42,13,-4079
546227255,-1,6,-6,-7,-39,-12,-4086
546228255,-1,6,-7,-3,-30,19,-4093
546229255,-1,4,2,-6,-25,15,-4102
546230255,-1,3,-6,-4,-20,-11,-4077
546231255,-1,7,-5,-4,-32,17,-4094
546232255,-1,6,-4,-6,-19,17,-4094
546233255,-1,10,-13,-13,-32,20,-4088
546234255,-1,9,-9,-9,-19,28,-4085
546235255,-1,5,-10,-15,-44,7,-4098
546236255,-1,9,-7,-8,-25,4,-4083
546237255,-1,2,-5,-7,-24,1,-4099
546238255,-1,8,-8,-9,-40,14,-4089
546239255,-1,4,-5,-9,-26,14,-4086
546240255,-1,8,-7,-6,-19,5,-4080
546241255,-1,7,-11,0,-30,-5,-4083
546242255,-1,4,-6,-8,-30,26,-4089
546243255,-1,5,1,-5,-16,11,-4093
546244255,-1,7,-6,-8,-32,-1,-4077
546245255,-1,1,0,-7,-41,23,-4097
546246255,-1,2,-3,-4,-27,-3,-4104
546247255,-1,6,-4,-7,-11,2,-4084
546248255,-1,3,-3,-10,-30,4,-4093
546249255,-1,3,-5,-7,-29,14,-4091
546250255,-1,2,-5,-10,-11,4,-4100
546251255,-1,2,-2,-4,-21,0,-4096
546252255,-1,4,-7,-7,-33,7,-4107
546253255,-1,6,-4,-11,-31,6,-4092
546254255,-1,7,-9,-12,-41,16,-4101
546255255,-1,5,-9,-7,-19,6,-4088
546256255,-1,10,-12,-8,-30,14,-4089
546257255,-1,6,-9,-8,-46,19,-4094
546258255,-1,7,0,-8,-31,3,-4101
546259255,-1,4,-4,-5,-24,2,-4097
546260255,-1,13,-5,-4,-16,7,-4092
546261255,-1,5,-5,-3,-21,8,-4091
546262255,-1,11,-10,-7,-22,0,-4096
546263255,-1,8,-9,-9,-34,10,-4088
546264255,-1,9,-7,-5,-26,7,-4091
546265255,-1,9,-8,-3,-17,4,-4098
546266255,-1,7,-4,-6,-30,-4,-4103
546267255,-1,4,-5,-6,-35,15,-4098
546268255,-1,5,-11,-7,-11,-1,-4096
546269255,-1,2,-7,-7,-23,7,-4103
546270255,-1,10,-7,-10,-29,11,-4075
546271255,-1,7,-7,-11,-43,1,-4092
546272255,-1,6,-7,-11,-26,22,-4098
546273255,-1,8,-18,-14,-44,13,-4101
546274255,-1,0,-6,-8,-32,5,-4093
546275255,-1,5,-6,-15,-52,6,-4094
546276255,-1,8,-12,-9,-47,16,-4090
546277255,-1,0,-2,-3,-29,4,-4093
546278256,-1,12,-10,-12,-14,-6,-4111
546279255,-1,5,-8,-2,-22,9,-4100
546280256,-1,4,-5,-8,-38,25,-4094
546281257,-1,2,-13,-11,-35,1,-4104
546282255,-1,2,-8,-3,-33,5,-4091
546283255,-1,3,-4,-4,-27,7,-4102
546284255,-1,10,-6,-10,-46,4,-4091
546285255,-1,4,-8,-9,-39,26,-4085
546286255,-1,9,-9,-7,-33,2,-4085
546287255,-1,1,-6,-8,-38,15,-4097
546288255,-1,2,-8,-10,-28,15,-4093
546289255,-1,7,-6,-12,-40,-4,-4096
546290255,-1,8,-11,-10,-43,11,-4092
546291255,-1,7,-9,-7,-56,2,-4098
546292255,-1,8,-11,-9,-34,10,-4090
546293255,-1,2,-3,-5,-44,18,-4089
546294255,-1,11,-8,-7,-44,17,-4090
546295255,-1,6,-9,-3,-33,9,-4098
546296255,-1,5,-10,-5,-33,18,-4088
546297255,-1,5,-13,-7,-38,8,-4076
546298255,-1,-1,-2,-1,-34,24,-4071
546299255,-1,6,-8,-7,-15,-21,-4085
546300255,-1,2,-4,-2,-30,7,-4099
546301255,-1,8,-8,-4,-31,21,-4096
546302255,-1,10,-10,-9,-40,-18,-4064
546303255,-1,7,-2,-6,-45,-18,-4079
546304255,-1,-1,-7,-7,-50,-29,-4068
546305255,-1,3,-4,-3,-56,-13,-4080
546306255,-1,3,1,-7,-38,-6,-4096
546307255,-1,-3,-5,-4,-36,-3,-4082
546308255,-1,7,-12,-12,13,18,-4114
546309255,-1,4,-10,-6,-4,-5,-4097
546310255,-1,5,-8,-6,-37,-20,-4069
546311255,-1,2,-4,-9,-33,6,-4076
546312255,-1,3,-4,-6,-34,13,-4078
546313255,-1,13,-6,-9,-20,0,-4075
546314255,-1,8,-4,-4,-2,24,-4084
546315255,-1,8,-3,-3,-21,-9,-4073
546316255,-1,10,-8,-7,-36,-13,-4085
546317255,-1,3,-3,-9,-18,13,-4077
546318255,-1,3,-5,-5,-28,16,-4084
546319255,-1,8,-2,-4,-26,20,-4091
546320255,-1,5,-5,-4,-34,34,-4080
546321255,-1,6,-7,-6,-23,19,-4086
546322255,-1,4,1,-10,-44,19,-4073
546323255,-1,4,-4,-8,-32,18,-4089
546324255,-1,3,-2,-1,-25,21,-4094
546325255,-1,4,-1,-3,-45,29,-4101
546326255,-1,6,-8,-5,-34,19,-4105
546327255,-1,5,-10,-7,-42,16,-4083
546328255,-1,6,-4,-6,-44,12,-4086
546329255,-1,6,-6,-5,-31,4,-4103
546330255,-1,3,5,-7,-27,12,-4097
546331255,-1,5,-5,-7,-30,-3,-4105
546332255,-1,0,-4,-9,-24,14,-4099
546333255,-1,8,0,-6,-36,11,-4108
546334255,-1,-2,-5,-5,-44,19,-4098
546335255,-1,0,-5,-6,-24,4,-4090
546336255,-1,2,-4,-9,-26,4,-4081
546337255,-1,6,-5,-7,-28,-5,-4100
546338255,-1,2,-9,-8,-34,14,-4087
546339255,-1,3,-4,-5,-21,-3,-4098
546340255,-1,1,-1,-11,-33,1,-4082
546341255,-1,4,-2,-7,-35,4,-4091
546342255,-1,3,-6,-6,-27,-20,-4093
546343255,-1,1,-2,-6,-30,-6,-4105
546344255,-1,1,0,-8,-37,-5,-4090
546345255,-1,4,-6,-8,-41,-11,-4094
546346255,-1,-3,-1,-5,-30,-11,-4085
546347255,-1,6,-4,-5,-35,8,-4093
546348255,-1,9,-9,-10,-29,4,-4098
546349255,-1,4,-1,-8,-21,-10,-4105
546350255,-1,-1,-6,-11,-24,2,-4103
546351255,-1,7,-2,-5,-19,12,-4106
546352255,-1,3,-8,-6,-29,17,-4072
546353255,-1,6,-4,-6,-36,2,-4085
546354255,-1,8,-4,-5,-43,-12,-4094
546355255,-1,3,-3,-7,-36,6,-4101
546356255,-1,2,0,-4,-33,7,-4096
546357255,-1,1,-5,-3,-33,8,-4088
546358255,-1,0,-4,-10,-37,4,-4072
546359255,-1,5,-3,-6,-34,17,-4101
546360255,-1,6,-4,-4,-26,1,-4091
546361255,-1,9,-6,-8,-31,16,-4095
546362255,-1,3,2,-8,-24,6,-4090
546363255,-1,7,-9,-7,-30,5,-4098
546364255,-1,5,-5,-3,-34,29,-4084
546365255,-1,1,-6,-9,-35,11,-4107
546366255,-1,2,-5,-1,-40,4,-4090
546367255,-1,3,-2,-6,-24,9,-4077
546368255,-1,8,-10,-11,-33,7,-4080
546369255,-1,9,-4,-9,-30,13,-4090
546370255,-1,3,-9,-9,-23,-2,-4088
546371255,-1,5,-4,-5,-40,15,-4088
546372255,-1,9,-10,-10,-34,30,-4091
546373255,-1,7,-5,-12,-46,-5,-4089
546374255,-1,4,1,-9,-29,14,-4076
546375255,-1,4,-5,-8,-35,13,-4088
546376255,-1,4,2,-7,-46,-3,-4078
546377255,-1,5,-6,-9,-21,1,-4084
546378255,-1,-2,-1,-9,-16,-2,-4081
546379255,-1,10,-5,-8,-26,14,-4083
546380255,-1,5,-5,-4,-28,7,-4078
546381255,-1,3,-2,-9,-31,-2,-4087
546382255,-1,3,-5,-11,-13,-4,-4096
546383255,-1,6,-1,-3,-26,2,-4098
546384255,-1,8,-3,-9,-39,8,-4095
546385255,-1,4,-4,-8,-26,-1,-4096
546386255,-1,-1,0,-2,-35,12,-4095
546387255,-1,-4,-2,-3,-43,4,-4091
546388255,-1,0,0,-4,-40,4,-4093
546389255,-1,7,-7,-8,-38,11,-4097
546390255,-1,1,-3,-5,-34,8,-4083
546391255,-1,6,1,-7,-34,8,-4077
546392255,-1,7,-2,-7,-30,15,-4100
546393255,-1,2,-3,-7,-37,10,-4094
546394255,-1,7,-5,-7,-31,8,-4096
546395255,-1,5,-7,-11,-32,7,-4102
546396255,-1,5,-3,-7,-19,14,-4085
546397255,-1,2,-5,-2,-27,3,-4072
546398255,-1,9,-6,-9,-10,7,-4087
546399255,-1,4,1,-7,-33,24,-4088
546400255,-1,5,-7,-2,-42,5,-4090
546401255,-1,9,-2,-4,-42,18,-4087
546402255,-1,4,-4,-6,-34,8,-4099
546403255,-1,1,-5,-8,-25,12,-4116
546404255,-1,0,-5,-4,-35,18,-4104
546405255,-1,-1,-4,-6,-39,11,-4093
546406255,-1,8,-3,-6,-46,9,-4096
546407255,-1,11,-6,-5,-40,4,-4096
546408255,-1,4,-1,-7,-46,18,-4098
546409255,-1,7,-5,-8,-33,16,-4089
546410255,-1,1,0,-10,-39,1,-4094
546411255,-1,12,0,-9,-37,6,-4098
546412255,-1,7,-1,-9,-25,9,-4103
546413255,-1,3,2,-9,-39,11,-4093
546414255,-1,7,-7,-12,-28,4,-4098
546415255,-1,2,-2,-9,-37,-3,-4089
546416255,-1,4,-2,-3,-36,4,-4101
546417255,-1,5,-5,-8,-42,1,-4092
546418255,-1,8,-5,-3,-22,-1,-4091
546419255,-1,4,-6,-7,-37,-1,-4101
546420255,-1,7,-3,-7,-26,17,-4094
546421255,-1,6,-6,-7,-36,8,-4085
546422255,-1,3,-5,-9,-32,1,-4097
546423255,-1,9,1,-12,-35,12,-4096
546424255,-1,5,-7,-5,-27,12,-4078
546425255,-1,7,-9,-6,-20,5,-4096
546426255,-1,0,-1,-6,-17,13,-4094
546427255,-1,5,-7,-11,-34,6,-4100
546428255,-1,3,-2,-4,-36,-3,-4099
546429255,-1,0,-6,-4,-39,8,-4115
546430255,-1,2,-3,-6,-22,14,-4100
546431255,-1,0,-5,-8,-22,6,-4084
546432255,-1,5,-6,-9,-24,9,-4094
546433255,-1,9,-9,-7,-37,7,-4094
546434255,-1,2,-3,-9,-22,6,-4074
546435255,-1,8,-3,-5,-42,14,-4096
546436255,-1,4,-1,-2,-25,29,-4092
546437255,-1,6,-5,-4,-32,15,-4100
546438255,-1,9,-6,-6,-32,5,-4090
546439255,-1,-4,6,-7,-42,16,-4085
546440255,-1,-1,-4,-8,-32,6,-4090
546441255,-1,7,-4,-5,-21,6,-4092
546442255,-1,4,0,-9,-38,14,-4095
546443255,-1,4,-4,-5,-21,14,-4084
546444255,-1,4,-3,-6,-28,21,-4083
546445255,-1,4,-2,-12,-23,14,-4095
546446255,-1,7,-6,-3,-32,-1,-4088
546447255,-1,3,1,-6,-24,17,-4085
546448255,-1,10,-6,-9,-36,18,-4094
546449255,-1,6,-1,-5,-45,-5,-4081
546450255,-1,1,-10,-12,-28,14,-4084
546451255,-1,6,-9,-8,-20,6,-4093
546452255,-1,-3,-8,-7,-24,0,-4097
546453255,-1,7,-7,-4,-29,7,-4098
546454255,-1,4,-1,-4,-28,3,-4088
546455255,-1,5,-3,-5,-33,3,-4087
546456255,-1,5,-3,-6,-32,16,-4092
546457255,-1,6,-4,-4,-39,6,-4083
546458255,-1,1,-4,-2,-28,17,-4076
546459255,-1,9,-4,-5,-47,10,-4078
546460255,-1,5,-4,-5,-44,-2,-4080
546461255,-1,6,-1,-10,-32,11,-4090
546462255,-1,6,-1,-10,-36,-9,-4081
546463255,-1,3,2,-6,-32,1,-4081
546464255,-1,6,-5,-8,-36,2,-4087
546465255,-1,2,-6,-7,-32,10,-4096
546466255,-1,2,-3,-8,-20,12,-4090
546467255,-1,4,1,-7,-26,8,-4093
546468255,-1,-2,-2,-6,-35,6,-4081
546469255,-1,5,-3,-9,-24,10,-4107
546470255,-1,6,-6,-6,-22,-7,-4091
546471255,-1,3,-2,-4,-27,18,-4093
546472255,-1,6,-9,-6,-32,1,-4100
546473255,-1,9,2,-6,-38,9,-4087
546474255,-1,3,0,-6,-39,9,-4071
546475255,-1,3,-6,-1,-40,12,-4081
546476255,-1,3,1,-10,-31,16,-4085
546477255,-1,0,-3,-9,-34,3,-4087
546478255,-1,4,-3,-7,-22,6,-4094
546479255,-1,3,-3,-9,-26,9,-4101
546480255,-1,0,-4,-4,-21,13,-4101
546481255,-1,3,-6,-6,-31,7,-4083
546482255,-1,6,-5,-6,-41,17,-4096
546483255,-1,5,-12,-9,-27,13,-4101
546484255,-1,4,-4,-7,-19,6,-4100
546485255,-1,0,-3,-7,-32,1,-4081
546486255,-1,2,-9,-9,-29,17,-4094
546487255,-1,7,0,-3,-25,-10,-4094
546488255,-1,7,-5,-8,-42,11,-4085
546489255,-1,2,-1,-8,-34,9,-4082
546490255,-1,6,-2,-6,-23,14,-4096
546491255,-1,4,-6,-10,-26,5,-4075
546492255,-1,8,2,-11,-31,3,-4079
546493255,-1,1,-9,-4,-45,1,-4096
546494255,-1,8,-5,-8,-36,-1,-4085
546495255,-1,1,-3,-9,-35,3,-4082
546496255,-1,4,-13,-9,-48,16,-4081
546497255,-1,9,-7,-4,-35,15,-4073
546498255,-1,1,-4,-2,-21,12,-4072
546499255,-1,9,-4,-4,-26,5,-4088
546500255,-1,0,-5,-1,-19,11,-4085
546501255,-1,7,-4,-4,-37,14,-4099
546502255,-1,5,-2,-2,-48,8,-4088
546503255,-1,3,-6,-3,-31,18,-4081
546504255,-1,2,-5,-1,-21,17,-4080
546505255,-1,4,-9,-11,-39,11,-4090
546506255,-1,7,-6,-11,-33,3,-4077
546507255,-1,5,-4,-10,-28,8,-4099
546508255,-1,6,-9,-10,-29,12,-4110
546509255,-1,1,2,-5,-25,20,-4081
546510255,-1,5,-4,-6,-34,3,-4079
546511255,-1,7,1,-9,-34,7,-4091
546512255,-1,5,-10,-8,-24,10,-4082
546513255,-1,3,1,-7,-30,17,-4091
546514255,-1,4,-6,-10,-37,0,-4083
546515255,-1,8,-7,-12,-34,6,-4081
546516255,-1,2,0,-4,-26,-9,-4067
546517255,-1,3,-4,-10,-34,13,-4091
546518255,-1,5,-2,-7,-33,3,-4088
546519255,-1,7,-6,-8,-28,11,-4095
546520255,-1,1,-1,-5,-28,11,-4100
546521255,-1,2,-6,-6,-32,2,-4100
546522255,-1,3,-3,-3,-29,14,-4098
546523255,-1,7,-8,-9,-27,1,-4097
546524255,-1,8,3,-6,-31,7,-4101
546525255,-1,-2,0,-8,-32,8,-4089
546526255,-1,4,-5,-5,-30,1,-4090
546527255,-1,-2,-4,-8,-42,8,-4097
546528255,-1,4,0,-11,-23,10,-4102
546529255,-1,4,-6,-11,-21,25,-4090
546530255,-1,6,-8,-9,-28,12,-4098
546531255,-1,7,-9,-10,-22,3,-4087
546532255,-1,-2,-4,-8,-35,17,-4101
546533255,-1,11,-7,-9,-24,7,-4096
546534255,-1,3,-4,-6,-27,6,-4081
546535255,-1,0,-5,-2,-34,9,-4088
546536255,-1,6,-3,-4,-35,7,-4087
546537255,-1,4,-2,-5,-37,11,-4086
546538255,-1,8,-1,-8,-39,-6,-4097
546539255,-1,7,-3,-5,-20,8,-4088
546540255,-1,5,-2,-5,-40,14,-4093
546541255,-1,6,0,-8,-51,10,-4092
546542255,-1,5,-4,-6,-28,10,-4084
546543255,-1,2,1,-5,-41,9,-4099
546544255,-1,3,-8,-9,-47,1,-4094
546545255,-1,2,2,-4,-45,6,-4077
546546255,-1,2,-5,-1,-38,-11,-4081
546547255,-1,6,-1,-4,-19,14,-4091
546548255,-1,5,-3,-11,-33,2,-4086
546549255,-1,9,-4,-7,-25,14,-4096
546550255,-1,6,-5,-10,-19,24,-4084
546551255,-1,4,0,-6,-14,5,-4081
546552255,-1,3,-6,-10,-33,0,-4100
546553255,-1,3,-5,-5,-26,-1,-4086
546554255,-1,1,3,-5,-30,-3,-4093
546555255,-1,9,-9,-9,-21,2,-4090
546556255,-1,7,-5,-8,-34,12,-4093
546557255,-1,4,-5,-4,-19,14,-4091
546558255,-1,7,-6,-2,-43,-5,-4086
546559255,-1,1,0,-7,-25,14,-4089
546560255,-1,7,-4,-5,-36,13,-4083
546561255,-1,4,-1,-5,-38,2,-4097
546562255,-1,6,0,-7,-42,11,-4092
546563255,-1,6,-3,-5,-41,8,-4093
546564255,-1,2,2,-6,-29,12,-4108
546565255,-1,11,-4,-9,-29,5,-4101
546566255,-1,5,-3,-10,-38,17,-4100
546567255,-1,5,0,-8,-24,14,-4107
546568255,-1,2,-4,-10,-25,24,-4085
546569255,-1,1,-5,-6,-20,16,-4103
546570255,-1,-1,0,-6,-42,11,-4070
546571255,-1,8,-6,-10,-28,1,-4093
546572255,-1,0,-1,-2,-49,3,-4081
546573255,-1,6,-5,-7,-33,1,-4085
546574255,-1,5,-3,-7,-19,7,-4096
546575255,-1,7,-4,-5,-38,9,-4088
546576255,-1,2,-4,-6,-51,12,-4093
546577255,-1,5,2,-6,-34,9,-4092
546578255,-1,-1,-2,-12,-9,6,-4108
546579255,-1,7,-11,-9,-25,13,-4079
546580255,-1,5,-4,-12,-23,-1,-4092
546581255,-1,3,-7,-4,-37,18,-4078
546582255,-1,6,-7,-8,-31,0,-4091
546583255,-1,5,-6,-5,-34,1,-4081
546584255,-1,5,-7,-3,-25,11,-4080
546585255,-1,-2,-3,-7,-27,11,-4096
546586255,-1,3,-3,-5,-31,5,-4107
546587255,-1,7,-6,-3,-25,-17,-4084
546588255,-1,7,0,-8,-30,10,-4111
546589255,-1,8,-5,-6,-36,0,-4087
546590255,-1,5,-1,-6,-42,4,-4096
546591255,-1,7,1,-8,-40,11,-4096
546592255,-1,4,-5,-14,-29,8,-4078
546593255,-1,5,-2,-10,-20,1,-4088
546594255,-1,1,-5,-9,-30,-3,-4093
546595255,-1,6,-6,-10,-17,12,-4079
546596255,-1,2,-3,-11,-41,2,-4088
546597255,-1,3,-5,-6,-33,13,-4091
546598255,-1,2,-3,-10,-18,16,-4086
546599255,-1,7,-7,-6,-26,12,-4084
546600255,-1,7,2,1,-25,0,-4096
546601255,-1,8,-6,-8,-25,-10,-4078
546602255,-1,6,-3,-7,-37,9,-4074
546603255,-1,-1,-7,-3,-10,9,-4100
546604255,-1,6,-4,-4,-38,5,-4096
546605255,-1,7,-4,-9,-35,7,-4091
546606255,-1,9,-5,-8,-34,4,-4082
546607255,-1,7,-1,-7,-35,0,-4091
546608255,-1,7,-7,-7,-37,10,-4073
546609255,-1,3,-3,-5,-34,7,-4079
546610255,-1,12,-3,-6,-37,7,-4077
546611255,-1,2,-3,-3,-27,14,-4096
546612255,-1,4,-5,-6,-38,30,-4083
546613255,-1,7,-11,-12,-30,10,-4083
546614255,-1,2,-3,-10,-35,-2,-4079
546615255,-1,3,0,-3,-34,10,-4090
546616255,-1,9,-7,-5,-36,3,-4085
546617255,-1,0,-7,-9,-20,2,-4094
546618255,-1,3,-3,-8,-27,-19,-4090
546619255,-1,9,-7,-8,-44,5,-4081
546620255,-1,-2,-1,-4,-36,5,-4103
546621255,-1,1,-2,-6,-39,5,-4091
546622255,-1,7,-4,-12,-24,6,-4100
546623255,-1,-1,-4,-10,-34,10,-4095
546624255,-1,14,-6,-10,-25,3,-4106
546625255,-1,3,1,-7,-21,9,-4096
546626255,-1,2,-5,-9,-48,-1,-4092
546627255,-1,4,2,-5,-42,-3,-4087
546628255,-1,-2,1,-4,-33,6,-4081
546629255,-1,5,-4,-7,-38,12,-4075
546630255,-1,5,3,-9,-20,1,-4091
546631255,-1,5,-4,-9,-31,0,-4086
546632255,-1,6,-4,-9,-27,1,-4082
546633255,-1,6,-6,-8,-38,9,-4086
546634255,-1,5,-5,-6,-42,19,-4100
546635255,-1,6,-2,-6,-29,13,-4096
546636255,-1,1,-3,-2,-24,1,-4106
546637255,-1,8,-7,-7,-19,13,-4107
546638255,-1,-2,-3,-10,-31,9,-4106
546639255,-1,4,-1,-6,-26,2,-4098
546640255,-1,6,-3,-4,-34,-3,-4090
546641255,-1,-1,-4,-8,-35,15,-4093
546642255,-1,3,-6,0,-31,6,-4099
546643255,-1,2,-8,-7,-26,6,-4080
546644255,-1,5,-3,-8,-28,14,-4086
546645255,-1,1,-7,-4,-41,14,-4080
546646255,-1,8,-1,-4,-29,-4,-4094
546647255,-1,2,-5,-2,-20,3,-4081
546648255,-1,-1,-8,-10,-42,11,-4088
546649255,-1,3,-7,-4,-17,-7,-4078
546650255,-1,2,-4,-9,-35,-5,-4064
546651255,-1,1,-6,-9,-27,13,-4069
546652255,-1,3,-1,-12,-30,21,-4090
546653255,-1,8,-6,-10,-20,11,-4087
546654255,-1,6,-3,-8,-33,15,-4080
546655255,-1,2,0,-11,-24,18,-4096
546656255,-1,2,-8,-6,-26,-10,-4098
546657255,-1,5,1,-7,-44,-4,-4091
546658255,-1,9,-7,-5,-22,7,-4084
546659255,-1,5,3,-3,-36,1,-4094
546660255,-1,0,-5,-9,-29,9,-4099
546661255,-1,5,-7,-10,-52,7,-4096
546662255,-1,4,-2,-9,-26,1,-4101
546663255,-1,5,-5,-5,-42,6,-4087
546664255,-1,6,-3,-9,-26,2,-4082
546665255,-1,4,-6,-10,-36,5,-4091
546666255,-1,9,-5,-9,-30,12,-4101
546667255,-1,2,-4,-7,-35,8,-4093
546668255,-1,3,0,-7,-35,5,-4089
546669255,-1,1,-6,-8,-20,14,-4093
546670255,-1,4,-1,-10,-30,2,-4089
546671255,-1,8,-1,-10,-15,11,-4095
546672255,-1,8,-3,-6,-26,2,-4084
546673255,-1,2,-4,-12,-23,-7,-4075
546674255,-1,4,-5,-6,-31,6,-4083
546675255,-1,0,1,-11,-29,1,-4093
546676255,-1,7,-2,-4,-45,16,-4093
546677255,-1,2,-4,-2,-34,5,-4096
546678255,-1,-1,-3,-7,-21,14,-4098
546679255,-1,1,-3,-7,-41,-1,-4097
546680255,-1,2,-3,0,-34,3,-4071
546681255,-1,6,-1,-3,-36,7,-4090
546682255,-1,4,-5,-7,-39,16,-4091
546683255,-1,4,-4,-10,-33,7,-4089
546684255,-1,3,-3,-6,-28,9,-4096
546685255,-1,6,-3,-7,-35,21,-4089
546686255,-1,4,-8,-9,-19,12,-4094
546687255,-1,2,2,-7,-23,15,-4091
546688255,-1,8,-1,-6,-32,-1,-4097
546689255,-1,0,-5,-9,-42,-4,-4090
546690255,-1,7,-6,-4,-40,4,-4088
546691255,-1,5,-3,-10,-25,1,-4099
546692255,-1,3,-3,-4,-40,-1,-4082
546693255,-1,4,-9,-7,-27,25,-4080
546694255,-1,8,-1,-2,-31,16,-4080
546695255,-1,1,-6,-9,-30,0,-4084
546696255,-1,6,-3,-1,-24,9,-4099
546697255,-1,3,-2,2,-35,10,-4086
546698255,-1,5,-5,-5,-27,7,-4087
546699255,-1,3,-4,-1,-30,20,-4094
546700255,-1,3,1,-12,-34,-1,-4086
546701255,-1,4,-2,-6,-32,-2,-4101
546702255,-1,6,-3,-4,-42,17,-4106
546703255,-1,4,-3,-6,-25,12,-4085
546704255,-1,-1,-6,-10,-28,2,-4089
546705255,-1,3,2,-8,-40,4,-4091
546706255,-1,7,-4,-7,-31,12,-4104
546707255,-1,3,-3,-5,-26,8,-4080
546708255,-1,7,-5,-9,-33,4,-4097
546709255,-1,7,-8,-8,-36,19,-4089
546710255,-1,-2,-2,-8,-27,4,-4090
546711255,-1,7,-1,-6,-25,7,-4088
546712255,-1,7,-7,-2,-34,12,-4096
546713255,-1,6,0,-2,-41,-4,-4090
546714255,-1,9,-1,-8,-29,3,-4089
546715255,-1,-1,2,-2,-25,17,-4087
546716255,-1,6,-6,-6,-31,10,-4084
546717255,-1,2,-6,-6,-18,4,-4083
546718255,-1,4,0,-8,-37,22,-4094
546719255,-1,5,-4,-10,-31,8,-4093
546720255,-1,12,-9,-7,-38,9,-4083
546721255,-1,3,-4,-8,-32,12,-4087
546722255,-1,6,-2,-5,-29,1,-4103
546723255,-1,-3,-4,-8,-33,14,-4097
546724255,-1,2,-4,-8,-35,14,-4093
546725255,-1,7,-7,-8,-37,27,-4089
546726255,-1,1,-1,-8,-44,8,-4075
546727255,-1,2,-9,-14,-35,11,-4082
546728255,-1,2,0,-7,-29,9,-4083
546729255,-1,11,-2,-8,-19,4,-4098
546730255,-1,5,-6,-7,-34,-1,-4082
546731255,-1,2,1,2,-35,5,-4085
546732255,-1,7,0,-3,-36,18,-4102
546733255,-1,7,-7,-6,-26,8,-4109
546734255,-1,2,-4,-5,-27,4,-4087
546735255,-1,9,-2,-6,-20,15,-4083
546736255,-1,3,0,-1,-39,11,-4095
546737255,-1,5,-2,-3,-39,6,-4073
546738255,-1,2,-3,-6,-44,16,-4096
546739255,-1,4,-5,-5,-40,1,-4103
546740255,-1,5,-6,-8,-36,5,-4093
546741255,-1,4,-5,-10,-33,3,-4096
546742255,-1,-3,2,-2,-42,13,-4089
546743255,-1,2,-3,-9,-54,4,-4097
546744255,-1,4,-3,-8,-45,12,-4096
546745255,-1,5,-4,-7,-40,5,-4099
546746255,-1,4,-2,-10,-48,8,-4092
546747255,-1,8,-3,-6,-32,18,-4092
546748255,-1,7,-3,-4,-32,8,-4085
546749255,-1,5,-5,-6,-17,22,-4096
546750255,-1,7,-1,-9,-29,4,-4076
546751255,-1,5,-6,-5,-33,24,-4088
546752255,-1,-1,-7,-7,-28,5,-4074
546753255,-1,3,-3,-1,-24,17,-4090
546754255,-1,7,-9,-3,-32,-4,-4088
546755255,-1,5,0,-8,-35,13,-4083
546756255,-1,5,-6,-3,-35,18,-4087
546757255,-1,5,-5,-3,-21,4,-4083
546758255,-1,7,-4,-5,-29,6,-4099
546759255,-1,6,-2,-8,-37,23,-4094
546760255,-1,4,-2,-7,-28,16,-4098
546761255,-1,5,-1,-9,-31,4,-4101
546762255,-1,10,-2,-9,-20,6,-4096
546763255,-1,-1,-7,-7,-31,1,-4097
546764255,-1,0,-4,-13,-33,14,-4095
546765255,-1,5,-4,-7,-39,7,-4111
546766255,-1,5,-3,-8,-42,12,-4068
546767255,-1,5,-4,-8,-29,-3,-4080
546768255,-1,3,-4,-4,-33,12,-4078
546769255,-1,4,1,-10,-33,6,-4085
546770255,-1,4,-5,-6,-27,17,-4096
546771255,-1,6,-2,-2,-37,12,-4070
546772255,-1,3,-4,-1,-32,9,-4084
546773255,-1,6,-8,-5,-35,10,-4092
546774255,-1,6,2,-1,-25,5,-4084
546775255,-1,6,-8,-3,-22,13,-4092
546776255,-1,4,-3,-6,-40,14,-4083
546777255,-1,3,-5,-3,-36,8,-4091
546778255,-1,8,-9,-5,-25,10,-4096
546779255,-1,9,2,-4,-14,1,-4111
546780255,-1,4,-6,-5,-41,8,-4102
546781255,-1,6,-3,-7,-24,16,-4080
546782255,-1,4,-3,-13,-30,0,-4094
546783255,-1,10,-6,-11,-35,14,-4088
546784255,-1,8,-9,-8,-33,12,-4089
546785255,-1,1,-2,-11,-42,11,-4098
546786255,-1,10,-8,-7,-53,17,-4100
546787255,-1,4,-2,0,-29,-1,-4101
546788255,-1,3,-4,-14,-24,19,-4094
546789255,-1,5,-6,-13,-25,12,-4090
546790255,-1,-3,-1,-5,-24,15,-4085
546791255,-1,4,-4,-7,-25,-1,-4094
546792255,-1,4,1,-3,-19,18,-4103
546793255,-1,2,-5,-4,-32,-4,-4097
546794255,-1,9,-2,-7,-37,12,-4100
546795255,-1,2,-5,-11,-53,4,-4091
546796255,-1,1,-4,-5,-17,14,-4107
546797255,-1,5,-5,-8,-25,-2,-4087
546798255,-1,5,-1,-8,-10,8,-4098
546799255,-1,6,-7,-8,-14,9,-4103
546800255,-1,4,-5,-4,-32,17,-4099
546801255,-1,3,-3,0,-33,14,-4104
546802255,-1,7,-7,-6,-36,-5,-4091
546803255,-1,-2,-2,-9,-27,26,-4075
546804255,-1,-2,-3,-5,-26,-1,-4096
546805255,-1,3,-10,-13,-34,6,-4093
546806255,-1,0,-3,-3,-27,10,-4083
546807255,-1,8,-4,-8,-27,1,-4093
546808255,-1,3,-8,-8,-35,18,-4079
546809255,-1,6,-1,-10,-22,1,-4094
546810255,-1,10,-5,-10,-30,2,-4096
546811255,-1,3,2,-4,-28,10,-4094
546812255,-1,3,3,-5,-31,4,-4092
546813255,-1,5,-4,-7,-26,13,-4076
546814255,-1,2,-4,-7,-25,23,-4093
546815255,-1,8,-7,-5,-37,12,-4092
546816255,-1,5,-10,-6,-21,7,-4086
546817255,-1,2,-4,-4,-20,-2,-4098
546818255,-1,3,-5,-2,-36,10,-4098
546819255,-1,4,-3,-6,-22,13,-4096
546820255,-1,4,0,-3,-23,17,-4095
546821255,-1,9,-7,-2,-8,5,-4097
546822255,-1,5,-4,-7,-27,-3,-4081
546823255,-1,8,-5,-11,-19,6,-4089
546824255,-1,3,1,-7,-45,6,-4095
546825255,-1,2,-4,-8,-52,12,-4108
546826255,-1,10,-9,-6,-36,-3,-4087
546827255,-1,2,-5,-9,-41,1,-4094
546828255,-1,7,-7,-7,-47,4,-4085
546829255,-1,4,-8,-7,-49,7,-4099
546830255,-1,4,-3,-10,-65,5,-4076
546831255,-1,2,-3,-4,-69,-19,-4070
546832255,-1,0,-4,-9,-70,-6,-4078
546833255,-1,5,-1,-7,-47,-2,-4052
546834255,-1,9,-4,-7,-45,-2,-4046
546835255,-1,2,0,-11,-6,17,-4039
546836255,-1,5,-3,-8,4,28,-4041
546837255,-1,9,-6,-7,41,36,-4044
546838255,-1,0,-3,-8,29,29,-4058
546839255,-1,7,-7,-7,49,26,-4072
546840255,-1,9,-7,-9,27,32,-4110
546841255,-1,12,-7,-9,18,1,-4144
546842255,-1,11,-10,-4,15,-29,-4168
546843255,-1,6,-2,-3,-4,-32,-4155
546844255,-1,3,-11,-7,-46,-19,-4164
546845255,-1,2,-9,-7,-58,-13,-4180
546846255,-1,3,-6,-6,-86,-6,-4189
546847255,-1,3,-6,-6,-95,-10,-4192
546848255,-1,-1,-9,-7,-113,35,-4173
546849255,-1,-2,-6,-11,-138,36,-4176
546850255,-1,5,-6,-9,-113,17,-4158
546851255,-1,4,-1,-12,-95,46,-4141
546852255,-1,3,1,-5,-103,35,-4146
546853255,-1,7,-3,-9,-85,0,-4137
546854255,-1,-1,3,-3,-51,-13,-4080
546855255,-1,2,2,-6,-26,-20,-4032
546856255,-1,4,1,-5,-20,-20,-4018
546857255,-1,-1,0,-6,36,-12,-3987
546858255,-1,6,-3,-9,60,-15,-3955
546859255,-1,-2,3,-9,61,22,-3956
546860255,-1,1,-4,-2,81,2,-3970
546861255,-1,-1,-7,-3,82,-1,-3963
546862255,-1,1,-6,-8,60,10,-3972
546863255,-1,0,-10,-8,30,15,-4030
546864255,-1,6,-9,-5,25,16,-4062
546865255,-1,3,-1,-11,-1,6,-4061
546866255,-1,9,-17,-10,-33,7,-4110
546867255,-1,5,-9,-2,-92,13,-4157
546868255,-1,9,-9,-9,-108,4,-4188
546869255,-1,7,-3,-11,-129,16,-4177
546870255,-1,6,0,-4,-130,9,-4184
546871255,-1,5,-6,-5,-138,-4,-4180
546872255,-1,-1,-2,-6,-135,12,-4158
546873255,-1,6,1,-6,-135,24,-4139
546874255,-1,4,4,-10,-82,13,-4093
546875255,-1,-5,5,-6,-54,23,-4077
546876255,-1,-3,4,-4,-8,46,-4086
546877255,-1,13,4,-6,50,45,-4060
546878255,-1,4,-3,-6,77,51,-4041
546879255,-1,9,-7,-9,66,41,-4065
546880255,-1,5,-1,-5,106,30,-4067
546881255,-1,10,-6,-7,67,-16,-4053
546882255,-1,10,-14,-10,37,-25,-4076
546883255,-1,7,-15,-8,-2,-35,-4091
546884255,-1,-1,-8,-5,-26,-45,-4087
546885255,-1,4,-8,-7,-46,-43,-4080
546886255,-1,5,-6,-10,-82,-18,-4069
546887255,-1,2,-10,-9,-114,-16,-4087
546888255,-1,-2,-2,-11,-95,-8,-4098
546889255,-1,5,-5,-8,-124,5,-4101
546890255,-1,8,-4,-12,-109,34,-4121
546891255,-1,3,2,-11,-81,54,-4121
546892255,-1,4,5,-5,-72,39,-4123
546893255,-1,7,3,-11,-68,2,-4113
546894255,-1,8,5,-4,-20,19,-4117
546895255,-1,3,1,-7,6,-15,-4089
546896255,-1,11,-3,-4,33,-14,-4099
546897255,-1,2,2,-3,30,-6,-4094
546898255,-1,7,-5,-6,31,0,-4081
546899255,-1,1,-5,-1,15,-10,-4058
546900255,-1,3,-10,-6,12,7,-4073
546901255,-1,4,-8,-3,0,26,-4078
546902255,-1,2,-5,-4,-21,27,-4079
546903255,-1,8,-11,-7,-28,39,-4089
546904255,-1,8,-12,-9,-47,24,-4094
546905255,-1,10,-11,-7,-70,0,-4098
546906255,-1,4,-5,-4,-88,15,-4102
546907255,-1,3,-1,-4,-90,7,-4111
546908255,-1,3,-7,-11,-76,12,-4109
546909255,-1,10,2,-11,-65,-4,-4119
546910255,-1,-1,-2,-8,-48,3,-4090
546911255,-1,6,1,-8,-43,6,-4087
546912255,-1,1,0,-6,-40,-3,-4071
546913255,-1,2,-7,-8,-12,-1,-4080
546914255,-1,4,-2,-11,-19,7,-4062
546915255,-1,2,3,-2,-9,13,-4062
546916255,-1,-2,-4,-4,0,14,-4061
546917255,-1,6,-4,-7,12,17,-4070
546918255,-1,6,0,-10,5,23,-4082
546919255,-1,6,-7,-9,0,23,-4085
546920255,-1,5,-8,-3,-5,12,-4086
546921255,-1,3,-7,-3,-35,16,-4083
546922255,-1,9,-16,-10,-31,-9,-4104
546923255,-1,6,-3,-5,-52,-19,-4118
546924255,-1,3,-7,-8,-68,-20,-4120
546925255,-1,1,0,-4,-56,-12,-4111
546926255,-1,2,-5,-8,-60,-31,-4114
546927255,-1,1,-5,-6,-67,-7,-4114
546928255,-1,4,-9,-14,-72,2,-4117
546929255,-1,-6,4,-5,-64,11,-4124
546930255,-1,4,-5,-12,-45,10,-4088
546931255,-1,1,-1,-5,-29,14,-4085
546932255,-1,9,0,-9,-28,11,-4093
546933255,-1,3,-3,-11,-15,14,-4077
546934255,-1,0,-3,-9,-14,8,-4093
546935255,-1,3,-7,-11,-5,24,-4077
546936255,-1,-1,-4,-7,0,2,-4068
546937255,-1,8,-6,-5,-19,-4,-4080
546938255,-1,9,-5,-8,-13,-1,-4075
546939255,-1,3,-3,-7,-28,15,-4079
546940255,-1,9,-2,-7,-15,27,-4081
546941255,-1,5,-7,-10,-46,-2,-4085
546942255,-1,2,-3,-5,-30,0,-4063
546943255,-1,3,-6,-8,-45,6,-4067
546944255,-1,3,-1,-9,-38,18,-4079
546945255,-1,6,-4,-6,-40,2,-4086
546946255,-1,2,-3,-3,-41,12,-4084
546947255,-1,0,-8,-10,-31,10,-4089
546948255,-1,3,-4,-7,-35,-1,-4087
546949255,-1,3,-6,-7,-28,21,-4092
546950255,-1,11,-5,-6,-28,24,-4098
546951255,-1,3,-6,-5,-38,19,-4097
546952255,-1,4,-2,-5,-35,17,-4089
546953255,-1,9,-10,-9,-35,7,-4097
546954255,-1,3,-3,-2,-21,7,-4098
546955255,-1,2,1,-6,-27,7,-4105
546956255,-1,2,-3,-4,-34,-1,-4103
546957255,-1,6,-8,-8,-48,8,-4097
546958255,-1,2,-5,-4,-43,5,-4114
546959255,-1,8,-7,-6,-44,-1,-4101
546960255,-1,4,1,-10,-26,9,-4121
546961255,-1,2,-6,-3,-38,11,-4115
546962255,-1,1,-4,-8,-41,2,-4106
546963255,-1,-2,0,-8,-37,11,-4094
546964255,-1,5,-7,-8,-38,1,-4099
546965255,-1,6,-3,-5,-30,-3,-4082
546966255,-1,6,-1,-9,-31,-10,-4088
546967255,-1,8,-7,-11,-18,3,-4083
546968255,-1,3,1,-7,-14,-2,-4072
546969255,-1,1,-11,-6,-20,4,-4060
546970255,-1,-1,-2,-9,-20,0,-4070
546971255,-1,-2,5,-4,-21,9,-4086
546972255,-1,2,-4,-6,-4,26,-4095
546973255,-1,6,0,-6,-36,14,-4094
546974255,-1,5,-8,-2,-19,16,-4091
546975255,-1,1,-1,-2,-38,7,-4092
546976255,-1,1,-3,-5,-34,20,-4104
546977255,-1,9,-8,-8,-31,7,-4108
546978255,-1,7,-6,-5,-49,8,-4104
546979255,-1,3,-2,-7,-54,8,-4113
546980255,-1,-4,-1,-1,-58,11,-4091
546981255,-1,0,-3,-2,-57,-12,-4074
546982255,-1,-2,-3,-5,-61,13,-4085
546983255,-1,5,-8,-13,-39,-4,-4081
546984255,-1,4,2,-8,-41,15,-4086
546985255,-1,3,-7,-9,-27,24,-4070
546986255,-1,4,-7,-12,-19,15,-4064
546987255,-1,3,1,-7,-10,12,-4079
546988255,-1,7,-3,-4,-18,13,-4073
546989255,-1,1,-3,-3,-19,22,-4078
546990255,-1,3,-6,-4,-18,22,-4087
546991255,-1,5,-7,-3,-15,14,-4089
546992255,-1,8,-4,-5,-19,11,-4094
546993255,-1,7,-10,-6,-22,2,-4091
546994255,-1,8,-9,-6,-20,10,-4091
546995255,-1,6,-5,-9,-56,-2,-4092
546996255,-1,3,-4,-5,-40,4,-4094
546997255,-1,5,-5,-7,-59,-10,-4111
546998255,-1,3,-4,-6,-57,8,-4115
546999255,-1,6,-9,-13,-55,1,-4102
547000255,-1,-2,-1,-3,-48,-11,-4090
547001255,-1,3,-5,-12,-43,1,-4105
547002255,-1,3,-1,-9,-27,1,-4092
547003255,-1,3,-3,-5,-28,-2,-4101
547004255,-1,-2,-7,-4,-32,18,-4092
547005255,-1,2,-6,-3,-11,8,-4075
547006255,-1,8,-6,-4,-2,20,-4086
547007255,-1,7,-2,-4,-5,12,-4083
547008255,-1,8,-1,-5,-6,24,-4080
547009255,-1,1,-9,-5,-15,5,-4097
547010255,-1,4,-4,-2,-23,-7,-4084
547011255,-1,7,-5,-7,-27,-3,-4086
547012255,-1,7,-8,-6,-40,15,-4095
547013255,-1,0,-9,-6,-27,17,-4080
547014255,-1,6,-4,-7,-43,13,-4096
547015255,-1,8,-5,-4,-48,16,-4080
547016255,-1,3,-5,-4,-56,12,-4093
547017255,-1,1,-9,-10,-38,9,-4105
547018255,-1,6,-5,-7,-38,13,-4102
547019255,-1,6,-6,-7,-47,6,-4107
547020255,-1,7,-9,-8,-39,0,-4101
547021255,-1,0,1,-5,-50,12,-4087
547022255,-1,4,-3,-5,-33,10,-4098
547023255,-1,3,-2,-2,-32,18,-4088
547024255,-1,2,0,-4,-29,5,-4084
547025255,-1,6,-5,-7,-24,19,-4089
547026255,-1,7,-6,-9,-22,6,-4070
547027255,-1,1,-1,-4,-29,0,-4081
547028255,-1,3,-3,-4,-27,5,-4088
547029255,-1,5,-3,-2,-29,16,-4082
547030255,-1,0,-2,-9,-28,14,-4070
547031255,-1,-2,-9,-5,-20,20,-4101
547032255,-1,0,-2,-10,-23,23,-4077
547033255,-1,4,-4,-7,-38,11,-4086
547034255,-1,3,-1,-17,-31,1,-4093
547035255,-1,1,0,-1,-23,5,-4085
547036255,-1,1,-5,-10,-49,10,-4097
547037255,-1,3,-7,-8,-38,9,-4082
547038255,-1,8,-2,-9,-38,12,-4093
547039255,-1,-1,-6,-5,-24,9,-4093
547040255,-1,0,-3,-5,-38,6,-4093
547041255,-1,7,-5,-10,-47,4,-4086
547042255,-1,6,-2,-13,-47,4,-4099
547043255,-1,2,-2,-8,-39,-7,-4096
547044255,-1,9,-5,-7,-32,-5,-4088
547045255,-1,4,-5,-13,-38,-5,-4085
547046255,-1,3,1,-6,-39,-26,-4083
547047255,-1,0,-9,-8,-5,-3,-4087
547048255,-1,-1,-1,2,-48,43,-4075
547049255,-1,6,-2,-7,-25,30,-4088
547050255,-1,2,-2,-2,-13,-21,-4105
547051255,-1,1,-5,-9,-8,42,-4070
547052255,-1,3,-4,-2,-44,19,-4120
547053255,-1,5,2,-12,-4,8,-4121
547054255,-1,2,-3,-4,-14,-7,-4078
547055255,-1,2,-3,-10,-47,9,-4077
547056255,-1,2,-1,-7,-25,7,-4099
547057255,-1,1,0,-10,-34,-6,-4084
547058255,-1,2,-4,-9,-42,-1,-4074
547059255,-1,7,-7,-7,-46,22,-4103
547060255,-1,4,-8,-7,-45,3,-4092
547061255,-1,2,-2,-7,-33,3,-4091
547062255,-1,10,-3,-12,-15,14,-4083
547063255,-1,-1,-5,-11,-47,30,-4086
547064255,-1,8,-2,-9,-42,18,-4109
547065255,-1,9,-3,-4,-14,4,-4087
547066255,-1,7,-4,-6,-22,16,-4091
547067255,-1,1,0,-3,-20,14,-4079
547068255,-1,6,-5,-6,-20,10,-4071
547069255,-1,4,-3,-7,-2,8,-4080
547070255,-1,9,0,-8,-21,12,-4085
547071255,-1,2,-4,-6,-21,13,-4091
547072255,-1,2,2,-9,-28,-9,-4099
547073255,-1,10,-5,-6,-28,-3,-4097
547074255,-1,4,-1,-7,-25,3,-4098
547075255,-1,10,-6,-6,-35,10,-4110
547076255,-1,8,-9,-5,-35,-10,-4103
547077255,-1,1,-7,-6,-43,5,-4090
547078255,-1,9,-7,-6,-36,5,-4096
547079255,-1,-6,-7,-7,-34,-4,-4076
547080255,-1,-1,-3,-6,-41,17,-4075
547081255,-1,7,-5,-8,-53,7,-4074
547082255,-1,6,1,-11,-28,11,-4089
547083255,-1,5,-3,-5,-32,17,-4104
547084255,-1,6,-6,-8,-32,-8,-4102
547085255,-1,0,2,-6,-37,1,-4099
547086255,-1,3,-4,-6,-28,3,-4093
547087255,-1,7,-7,-8,-25,10,-4085
547088255,-1,5,-3,-4,-26,26,-4094
547089255,-1,8,-4,-11,-24,20,-4089
547090255,-1,6,-6,-11,-20,4,-4070
547091255,-1,6,-2,-8,-38,10,-4083
547092255,-1,1,-5,-7,-33,-1,-4089
547093255,-1,7,-4,-5,-21,21,-4094
547094255,-1,6,-5,-4,-38,7,-4084
547095255,-1,3,-4,-5,-50,13,-4095
547096255,-1,-1,-3,-5,-45,13,-4079
547097255,-1,3,-6,-9,-41,6,-4092
547098255,-1,7,-4,-2,-35,7,-4099
547099255,-1,-3,0,-4,-28,8,-4073
547100255,-1,2,-6,-5,-36,19,-4072
547101255,-1,3,-1,-10,-40,21,-4087
547102255,-1,8,-4,-4,-24,24,-4078
547103255,-1,3,-1,-5,-9,6,-4078
547104255,-1,7,-3,-4,-30,9,-4097
547105255,-1,3,-8,-3,-32,1,-4078
547106255,-1,8,-5,-9,-19,0,-4095
547107255,-1,5,-7,-8,-23,18,-4103
547108255,-1,8,-5,-7,-18,9,-4094
547109255,-1,4,-2,-5,-28,9,-4085
547110255,-1,3,-9,-8,-41,-1,-4089
547111255,-1,8,-7,-10,-35,0,-4096
547112255,-1,1,2,-9,-48,2,-4082
547113255,-1,10,-9,-12,-43,-13,-4094
547114255,-1,1,0,-5,-35,10,-4086
547115255,-1,5,-6,-8,-40,19,-4090
547116255,-1,7,-6,-4,-30,15,-4080
547117255,-1,2,-2,-13,-38,17,-4083
547118255,-1,5,-7,-8,-21,11,-4085
547119255,-1,5,-3,-4,-39,5,-4076
547120255,-1,7,0,-4,-24,19,-4094
547121255,-1,3,-1,-4,-23,5,-4088
547122255,-1,0,-1,-6,-22,1,-4081
547123255,-1,3,-7,-1,-15,2,-4079
547124255,-1,1,-6,-8,-23,5,-4078
547125255,-1,8,-2,-9,-14,5,-4080
547126255,-1,6,-6,-6,-18,-7,-4091
547127255,-1,2,-3,-5,-34,8,-4093
547128255,-1,-1,-1,-6,-38,5,-4098
547129255,-1,7,-10,-8,-30,19,-4096
547130255,-1,2,-8,-6,-38,16,-4101
547131255,-1,6,-6,-11,-36,11,-4106
547132255,-1,6,-2,-10,-29,6,-4104
547133255,-1,6,-1,-7,-45,9,-4089
547134255,-1,11,-4,-8,-37,19,-4080
547135255,-1,6,0,-5,-30,19,-4103
547136255,-1,6,-3,-10,-40,21,-4094
547137255,-1,3,1,-14,-27,-3,-4090
547138255,-1,1,0,-7,-24,13,-4092
547139255,-1,9,-2,-5,-42,-2,-4068
547140255,-1,3,-3,-2,-29,12,-4066
547141255,-1,3,-4,-3,-27,3,-4077
547142255,-1,10,-3,-7,-21,5,-4083
547143255,-1,1,0,0,-26,0,-4086
547144255,-1,5,-2,-7,-44,8,-4086
547145255,-1,3,-3,-3,-24,8,-4079
547146255,-1,3,-4,-7,-37,7,-4096
547147255,-1,5,-7,-7,-33,1,-4096
547148255,-1,8,-8,-16,-34,16,-4092
547149255,-1,1,1,-8,-44,8,-4090
547150255,-1,10,-9,-8,-37,-1,-4086
547151255,-1,2,-2,-8,-45,-6,-4096
547152255,-1,6,-1,-7,-37,10,-4103
547153255,-1,11,-6,-8,-39,6,-4100
547154255,-1,0,-1,-4,-29,11,-4093
547155255,-1,5,-4,-2,-31,21,-4099
547156255,-1,7,-6,-7,-26,-10,-4097
547157255,-1,-1,2,-1,-26,8,-4080
547158255,-1,3,-4,-8,-24,13,-4074
547159255,-1,3,-4,-6,-21,-2,-4085
547160255,-1,5,-4,-8,-35,-3,-4093
547161255,-1,8,-6,-8,-30,21,-4086
547162255,-1,6,-5,-4,-19,12,-4099
547163255,-1,8,-4,-9,-19,9,-4093
547164255,-1,2,-4,-5,-22,1,-4086
547165255,-1,2,0,-9,-25,12,-4073
547166255,-1,9,-11,-6,-23,13,-4091
547167255,-1,1,1,-6,-37,7,-4101
547168255,-1,5,-2,-11,-39,10,-4092
547169255,-1,6,-7,-8,-26,3,-4093
547170255,-1,5,0,-11,-27,28,-4088
547171255,-1,4,-6,-7,-30,12,-4103
547172255,-1,1,-2,-11,-26,19,-4100
547173255,-1,-1,-4,-9,-22,-1,-4102
547174255,-1,3,-6,-3,-43,10,-4104
547175255,-1,5,-2,-7,-26,16,-4104
547176255,-1,5,1,-9,-29,12,-4098
547177255,-1,3,-3,-4,-32,4,-4098
547178255,-1,5,-5,-2,-36,-7,-4104
547179255,-1,2,-4,-9,-32,-5,-4090
547180255,-1,7,-2,-2,-36,15,-4071
547181255,-1,1,-3,-2,-39,4,-4094
547182255,-1,6,-7,-5,-43,4,-4088
547183255,-1,7,0,-8,-33,16,-4099
547184255,-1,2,-2,-9,-26,4,-4091
547185255,-1,-1,-6,-6,-31,-12,-4077
547186256,-1,7,-4,-2,-22,7,-4082
547187255,-1,6,-6,-3,-22,28,-4079
547188256,-1,6,-1,-8,-24,12,-4086
547189257,-1,4,-6,-7,-32,13,-4086
547190255,-1,-4,-6,-7,-25,23,-4098
547191255,-1,2,-7,-14,-26,13,-4084
547192255,-1,8,-6,-11,-29,13,-4071
547193255,-1,7,-11,-10,-41,6,-4092
547194255,-1,1,-1,-10,-23,1,-4091
547195255,-1,-1,-3,-8,-39,17,-4094
547196255,-1,-2,-5,-4,-27,11,-4085
547197255,-1,3,-4,-5,-32,17,-4085
547198255,-1,7,-8,-7,-39,5,-4084
547199255,-1,3,-2,-1,-39,4,-4087
547200255,-1,-2,-1,-11,-31,24,-4101
547201255,-1,9,-5,-6,-40,24,-4095
547202255,-1,-3,-3,-4,-37,-10,-4101
547203255,-1,5,0,-11,-34,-2,-4097
547204255,-1,7,-4,-5,-31,3,-4099
547205255,-1,3,-9,-11,-32,-1,-4094
547206255,-1,4,-5,-7,-31,-7,-4089
547207255,-1,3,2,-6,-31,6,-4097
547208255,-1,-2,-4,-5,-22,12,-4101
547209255,-1,6,-8,-10,-32,17,-4075
547210255,-1,2,-1,-8,-19,10,-4086
547211255,-1,6,-6,-13,-40,4,-4092
547212255,-1,8,-2,-8,-31,18,-4098
547213255,-1,2,1,-8,-34,15,-4092
547214255,-1,6,-5,-8,-38,5,-4086
547215255,-1,8,-8,-8,-24,12,-4099
547216255,-1,7,-7,-8,-40,-1,-4097
547217255,-1,3,-1,-1,-39,-5,-4088
547218255,-1,-1,-4,-2,-18,2,-4070
547219255,-1,9,-3,-5,-38,3,-4077
547220255,-1,6,-1,-7,-34,4,-4078
547221255,-1,3,-3,-13,-16,-2,-4067
547222255,-1,3,-2,-8,-23,6,-4076
547223255,-1,5,-7,-8,-30,17,-4077
547224255,-1,7,-9,-10,-24,8,-4089
547225255,-1,7,-4,-6,-27,-3,-4094
547226255,-1,3,-3,-4,-44,14,-4091
547227255,-1,4,-7,-7,-54,13,-4090
547228255,-1,2,-7,-10,-49,8,-4094
547229255,-1,-1,-5,-3,-43,3,-4108
547230255,-1,11,-6,-10,-40,-2,-4082
547231255,-1,2,-1,-8,-38,0,-4085
547232255,-1,4,-4,-6,-36,-19,-4104
547233255,-1,0,4,-6,-40,11,-4089
547234255,-1,5,-5,-6,-30,3,-4090
547235255,-1,6,-4,-7,-41,11,-4084
547236255,-1,2,-1,-13,-27,15,-4095
547237255,-1,-1,-7,-9,-26,9,-4086
547238255,-1,8,-1,-7,-39,0,-4082
547239255,-1,3,-4,-5,-26,10,-4086
547240255,-1,15,-5,-8,-28,26,-4075
547241255,-1,6,-6,-4,-21,10,-4090
547242255,-1,0,-4,-3,-20,21,-4089
547243255,-1,13,-7,-9,-12,0,-4082
547244255,-1,5,-3,-5,-22,-15,-4092
547245255,-1,1,-2,-8,-17,5,-4097
547246255,-1,7,-7,-6,-28,5,-4101
547247255,-1,4,-4,-5,-27,-5,-4110
547248255,-1,6,-1,-9,-52,5,-4089
547249255,-1,3,0,-7,-45,11,-4106
547250255,-1,3,-2,-8,-54,18,-4109
547251255,-1,3,-8,-9,-46,11,-4094
547252255,-1,3,-1,-6,-63,13,-4083
547253255,-1,2,1,-5,-43,13,-4078
547254255,-1,3,-2,-8,-35,-1,-4069
547255255,-1,5,-4,-7,-15,9,-4062
547256255,-1,8,-5,-9,-14,20,-4090
547257255,-1,9,-3,-5,-15,14,-4088
547258255,-1,9,-5,-5,-17,-17,-4094
547259255,-1,7,-7,-7,-1,10,-4117
547260255,-1,8,-3,-9,-22,2,-4101
547261255,-1,8,-8,-10,-25,-30,-4101
547262255,-1,7,-9,-7,-39,3,-4083
547263255,-1,3,-7,-8,-48,5,-4086
547264255,-1,1,-6,-2,-32,9,-4078
547265255,-1,1,-7,-5,-43,13,-4069
547266255,-1,6,-2,-7,-45,34,-4099
547267255,-1,-1,-3,-3,-29,36,-4100
547268255,-1,-1,-4,-3,-51,28,-4109
547269255,-1,2,0,-10,-51,15,-4112
547270255,-1,8,-8,-11,-39,17,-4124
547271255,-1,5,-3,-5,-46,-15,-4118
547272255,-1,2,0,-5,-58,3,-4102
547273255,-1,6,-10,-8,-40,-15,-4094
547274255,-1,3,1,-3,-38,2,-4075
547275255,-1,4,-2,-5,-47,-10,-4057
547276255,-1,1,0,-2,-38,9,-4040
547277255,-1,-2,0,2,-10,3,-4026
547278255,-1,7,-4,-7,-13,28,-4038
547279255,-1,4,-2,-4,16,50,-4050
547280255,-1,9,-8,-8,-4,31,-4067
547281255,-1,3,-3,-8,1,15,-4088
547282255,-1,3,1,-6,29,16,-4085
547283255,-1,5,-4,-9,-15,-9,-4105
547284255,-1,7,-3,-5,-25,-14,-4103
547285255,-1,6,-3,-4,-35,-38,-4099
547286255,-1,5,-10,-6,-45,-8,-4093
547287255,-1,2,-3,-7,-54,19,-4103
547288255,-1,10,-3,-8,-48,6,-4109
547289255,-1,5,-3,-7,-51,38,-4109
547290255,-1,6,-6,-14,-74,7,-4118
547291255,-1,0,-6,-10,-78,22,-4117
547292255,-1,1,-3,-10,-81,11,-4107
547293255,-1,9,-4,-10,-77,-11,-4120
547294255,-1,7,-1,-9,-40,-8,-4079
547295255,-1,1,2,-5,-32,-1,-4074
547296255,-1,4,-5,-7,-18,8,-4081
547297255,-1,7,-4,-9,31,-2,-4074
547298255,-1,6,-7,-5,35,21,-4068
547299255,-1,8,-8,-6,8,43,-4079
547300255,-1,3,-4,-7,18,0,-4095
547301255,-1,1,-7,-3,21,-10,-4102
547302255,-1,8,-13,-7,-24,7,-4095
547303255,-1,4,-1,-7,-56,-10,-4091
547304255,-1,4,-8,-11,-57,-16,-4088
547305255,-1,4,-9,-6,-62,-25,-4082
547306255,-1,-1,0,-6,-60,-24,-4071
547307255,-1,5,-4,-8,-53,-8,-4066
547308255,-1,2,0,-8,-47,40,-4071
547309255,-1,6,-7,-9,-44,22,-4093
547310255,-1,8,-5,-9,-22,39,-4095
547311255,-1,0,3,-4,-36,38,-4116
547312255,-1,8,-4,-6,-41,14,-4120
547313255,-1,6,1,0,-36,2,-4112
547314255,-1,3,3,-5,-38,-2,-4111
547315255,-1,5,-5,-7,-18,-16,-4095
547316255,-1,7,0,-4,-29,-7,-4063
547317255,-1,3,-5,0,-37,-8,-4048
547318255,-1,-3,-6,-7,-24,-4,-4036
547319255,-1,-3,-2,-7,-21,23,-4048
547320255,-1,3,-5,-6,10,26,-4063
547321255,-1,5,-3,-10,-9,34,-4069
547322255,-1,9,-2,-13,-8,33,-4093
547323255,-1,5,-4,-11,-11,30,-4120
547324255,-1,3,-5,-9,-14,5,-4129
547325255,-1,6,-6,-7,-34,-1,-4128
547326255,-1,6,-2,-2,-65,-22,-4130
547327255,-1,9,-1,-7,-66,-22,-4122
547328255,-1,9,-7,-9,-70,-17,-4109
547329255,-1,11,-1,-9,-60,-9,-4082
547330255,-1,1,-1,-7,-32,6,-4070
547331255,-1,6,-8,-15,-45,29,-4081
547332255,-1,5,2,-9,-62,9,-4088
547333255,-1,1,-8,-7,-45,-5,-4082
547334255,-1,8,-1,-10,-38,10,-4098
547335255,-1,7,0,-7,-45,16,-4101
547336255,-1,4,0,-7,-20,-5,-4118
547337255,-1,7,-1,-9,-32,-10,-4099
547338255,-1,2,0,-3,-20,5,-4071
547339255,-1,6,-6,-5,-10,25,-4070
547340255,-1,5,-3,-6,12,12,-4063
547341255,-1,7,-2,-4,14,49,-4068
547342255,-1,9,-10,-2,-4,40,-4091
547343255,-1,2,-7,-4,-14,-5,-4067
547344255,-1,2,-4,-5,-31,0,-4061
547345255,-1,-2,-3,-9,-31,-19,-4085
547346255,-1,3,-3,-8,-43,-22,-4108
547347255,-1,5,-8,-4,-30,-26,-4095
547348255,-1,3,-7,-4,-60,17,-4098
547349255,-1,5,-4,-8,-38,2,-4080
547350255,-1,3,-2,-1,-25,12,-4074
547351255,-1,-1,3,-4,-44,43,-4100
547352255,-1,9,-4,-1,-11,47,-4122
547353255,-1,7,-6,-8,-36,33,-4124
547354255,-1,8,-3,-6,-49,34,-4133
547355255,-1,7,-5,-8,-32,32,-4129
547356255,-1,8,0,-9,-34,16,-4124
547357255,-1,7,-9,-12,-41,4,-4113
547358255,-1,11,-4,-7,-63,-24,-4113
547359255,-1,3,-5,-2,-59,-29,-4104
547360255,-1,6,-11,-8,-66,-25,-4056
547361255,-1,4,-4,-5,-35,-15,-4054
547362255,-1,-1,-5,-5,-22,4,-4042
547363255,-1,4,-4,-5,-22,41,-4062
547364255,-1,-4,4,-5,-12,39,-4062
547365255,-1,3,-5,-9,-25,30,-4076
547366255,-1,1,-4,-8,-11,37,-4093
547367255,-1,8,-7,-10,-12,28,-4080
547368255,-1,5,-2,0,-15,27,-4093
547369255,-1,8,-4,-6,-11,3,-4094
547370255,-1,10,-6,-3,-34,-23,-4102
547371255,-1,9,-5,-3,-10,-7,-4078
547372255,-1,7,-3,-1,-50,1,-4086
547373255,-1,7,-5,-8,-55,-2,-4091
547374255,-1,8,-10,-9,-45,-17,-4089
547375255,-1,-2,3,-5,-82,-21,-4081
547376255,-1,0,-2,-7,-62,1,-4105
547377255,-1,3,-3,-8,-34,22,-4100
547378255,-1,-3,2,-2,-29,15,-4104
547379255,-1,3,-5,-12,-1,43,-4099
547380255,-1,2,-2,-2,-29,78,-4127
547381255,-1,3,-4,-3,-17,24,-4125
547382255,-1,7,-8,0,-7,32,-4112
547383255,-1,1,1,-8,-36,27,-4086
547384255,-1,12,-3,-11,-38,-4,-4122
547385255,-1,4,-4,-12,-40,-36,-4069
547386255,-1,2,-6,-8,-38,-23,-4075
547387255,-1,1,-5,-9,-39,-1,-4076
547388255,-1,3,-5,-7,-36,-34,-4089
547389255,-1,2,-2,-5,-41,-24,-4066
547390255,-1,0,-8,-10,-45,21,-4062
547391255,-1,-2,1,-8,-23,33,-4084
547392255,-1,5,-4,-7,6,24,-4081
547393255,-1,1,-3,-8,-14,37,-4089
547394255,-1,1,-2,-8,-13,61,-4128
547395255,-1,14,-5,-9,-41,15,-4125
547396255,-1,6,-3,-8,-34,2,-4116
547397255,-1,10,-13,-9,-55,-10,-4114
547398255,-1,5,-5,-7,-84,-51,-4115
547399255,-1,8,-2,-8,-85,-45,-4060
547400255,-1,-3,-2,-6,-73,-16,-4060
547401255,-1,2,-4,-9,-41,-8,-4051
547402255,-1,-3,-2,-5,-33,5,-4052
547403255,-1,7,-3,-12,-13,28,-4044
547404255,-1,7,-2,-7,-14,65,-4090
547405255,-1,6,4,-3,-8,63,-4072
547406255,-1,5,-4,-3,17,44,-4080
547407255,-1,0,0,-5,13,32,-4103
547408255,-1,4,-9,-10,-11,-3,-4086
547409255,-1,7,-5,-7,-14,-16,-4074
547410255,-1,4,-7,-7,-13,-22,-4093
547411255,-1,5,-5,-10,-25,-19,-4081
547412255,-1,-2,-5,-4,-20,-15,-4093
547413255,-1,2,-8,-7,-33,-15,-4094
547414255,-1,1,-1,-6,-42,18,-4097
547415255,-1,3,-2,-9,-65,18,-4103
547416255,-1,7,-11,-10,-53,11,-4106
547417255,-1,0,0,-6,-53,25,-4110
547418255,-1,6,3,-6,-52,48,-4124
547419255,-1,7,-7,-8,-55,23,-4126
547420255,-1,7,1,-5,-38,12,-4116
547421255,-1,10,-4,-7,-39,14,-4120
547422255,-1,14,-8,-6,-35,6,-4108
547423255,-1,6,1,-4,-47,-23,-4102
547424255,-1,6,-5,-7,-37,-23,-4090
547425255,-1,0,-1,-6,-16,-10,-4076
547426255,-1,6,-5,-9,-31,-11,-4071
547427255,-1,7,0,-11,4,-29,-4030
547428255,-1,-3,0,-9,-17,7,-4032
547429255,-1,-1,-4,-7,0,15,-4058
547430255,-1,-1,-3,-4,-9,16,-4070
547431255,-1,0,-4,-4,-3,26,-4093
547432255,-1,3,-4,-10,-33,35,-4104
547433255,-1,8,-1,-7,-33,29,-4099
547434255,-1,13,-5,-8,-26,14,-4128
547435255,-1,12,-4,-9,-31,19,-4132
547436255,-1,10,-8,-7,-59,-1,-4122
547437255,-1,8,-4,-5,-64,-20,-4135
547438255,-1,3,2,-9,-77,-25,-4111
547439255,-1,2,-3,-5,-103,-45,-4100
547440255,-1,2,-6,-10,-82,-41,-4084
547441255,-1,-1,2,-9,-49,-32,-4064
547442255,-1,-2,-2,-7,-47,10,-4048
547443255,-1,3,-4,-8,-25,72,-4047
547444255,-1,2,4,-4,8,56,-4086
547445255,-1,7,-3,-11,32,52,-4100
547446255,-1,6,-2,-9,29,76,-4083
547447255,-1,4,-2,-1,-6,53,-4133
547448255,-1,9,-7,-7,2,13,-4129
547449255,-1,2,-5,-10,-6,-44,-4122
547450255,-1,4,-9,-11,-57,-56,-4103
547451255,-1,4,-3,-2,-43,-49,-4087
547452255,-1,0,1,-4,-49,-31,-4068
547453255,-1,-3,-14,-10,-48,-20,-4058
547454255,-1,-4,-6,-9,-46,8,-4048
547455255,-1,-8,-3,-9,-63,44,-4059
547456255,-1,9,-11,-9,-39,45,-4085
547457255,-1,4,-6,-13,-44,48,-4098
547458255,-1,6,-5,-7,-60,51,-4115
547459255,-1,8,-6,-8,-46,35,-4121
547460255,-1,7,4,-3,-31,27,-4122
547461255,-1,6,0,-3,-21,12,-4128
547462255,-1,5,-8,1,-26,-24,-4094
547463255,-1,7,-1,0,-14,-33,-4073
547464255,-1,4,-3,-7,-20,-26,-4081
547465255,-1,-1,-3,-6,-20,-26,-4091
547466255,-1,1,-7,-10,-47,-27,-4063
547467255,-1,-2,-3,-10,-20,7,-4056
547468255,-1,-5,-2,-8,-29,37,-4082
547469255,-1,0,-1,-6,-30,24,-4097
547470255,-1,-1,-2,-9,-9,43,-4094
547471255,-1,4,-6,-4,-32,47,-4110
547472255,-1,5,-10,-5,-38,31,-4114
547473255,-1,10,-5,-9,-46,3,-4105
547474255,-1,8,-1,-8,-55,-7,-4095
547475255,-1,10,-4,-2,-35,-10,-4076
547476255,-1,5,1,0,-39,-20,-4077
547477255,-1,3,-3,-5,-36,-26,-4063
547478255,-1,-1,-3,-8,-30,-17,-4091
547479255,-1,2,-2,-11,-34,-1,-4092
547480255,-1,7,-4,-7,-24,7,-4100
547481255,-1,0,-2,-7,-26,18,-4100
547482255,-1,4,-1,-4,-39,36,-4108
547483255,-1,4,-3,-4,-30,31,-4110
547484255,-1,1,0,-3,-17,38,-4112
547485255,-1,7,-5,-9,-20,22,-4089
547486255,-1,9,-4,-9,-24,12,-4099
547487255,-1,4,-4,-9,-41,-2,-4109
547488255,-1,9,-11,-13,-39,-16,-4092
547489255,-1,-4,0,-6,-69,-26,-4079
547490255,-1,3,-2,-9,-68,-17,-4064
547491255,-1,0,-5,-15,-42,-3,-4058
547492255,-1,-6,2,-4,-38,-16,-4082
547493255,-1,-1,0,-5,-21,11,-4073
547494255,-1,-2,3,-6,-12,29,-4067
547495255,-1,1,-2,-6,15,47,-4079
547496255,-1,4,-11,-6,22,55,-4078
547497255,-1,6,-1,-2,17,43,-4094
547498255,-1,13,-9,-5,-3,11,-4108
547499255,-1,4,-3,-4,-18,-3,-4105
547500255,-1,7,-2,-5,-40,-19,-4110
547501255,-1,10,-10,-7,-37,-36,-4096
547502255,-1,1,-4,-10,-68,-17,-4094
547503255,-1,2,-2,-7,-84,-35,-4077
547504255,-1,6,-7,-6,-72,-26,-4078
547505255,-1,2,2,-13,-84,24,-4060
547506255,-1,0,1,-5,-56,16,-4078
547507255,-1,0,0,-8,-33,43,-4095
547508255,-1,-2,2,-7,-7,81,-4117
547509255,-1,7,-2,-5,-13,47,-4119
547510255,-1,7,-7,-7,-21,57,-4116
547511255,-1,1,-1,-5,-9,22,-4113
547512255,-1,6,-1,-2,-27,-11,-4116
547513255,-1,8,-5,-4,-19,-17,-4087
547514255,-1,4,-6,-1,-37,-56,-4065
547515255,-1,6,-8,-7,-40,-60,-4081
547516255,-1,-1,2,-1,-29,-48,-4017
547517255,-1,-2,-2,-4,-15,-7,-4049
547518255,-1,-3,-7,-9,14,41,-4065
547519255,-1,-7,-1,-7,-21,63,-4069
547520255,-1,3,-10,-10,-8,59,-4104
547521255,-1,7,-5,-8,-4,70,-4090
547522255,-1,10,-9,-11,-26,62,-4122
547523255,-1,13,-9,-7,-36,24,-4134
547524255,-1,5,-1,-3,-24,-1,-4117
547525255,-1,12,-11,-9,-61,-33,-4130
547526255,-1,7,-2,-1,-69,-75,-4100
547527255,-1,7,-3,-10,-75,-71,-4080
547528255,-1,2,-4,-8,-71,-50,-4063
547529255,-1,-4,2,-1,-33,-30,-4058
547530255,-1,2,-4,-7,-18,13,-4061
547531255,-1,-5,4,-8,-10,29,-4076
547532255,-1,-3,-5,-5,6,58,-4081
547533255,-1,6,-4,-7,4,73,-4085
547534255,-1,5,-2,-9,27,73,-4105
547535255,-1,10,-3,-2,17,45,-4121
547536255,-1,9,-2,-3,-20,26,-4136
547537255,-1,8,-7,0,-55,-20,-4109
547538255,-1,11,-6,-4,-50,-62,-4106
547539255,-1,8,-5,-10,-67,-45,-4092
547540255,-1,5,-8,-2,-63,-56,-4083
547541255,-1,3,-7,-11,-59,-35,-4053
547542255,-1,2,-2,-9,-63,-31,-4068
547543255,-1,-3,-2,-2,-34,6,-4057
547544255,-1,1,-4,-12,-15,30,-4079
547545255,-1,0,3,-5,5,56,-4102
547546255,-1,1,-3,-10,-4,72,-4104
547547255,-1,1,-8,-6,-3,75,-4126
547548255,-1,7,-6,-7,-19,20,-4137
547549255,-1,10,-3,-3,-29,28,-4114
547550255,-1,7,-2,-1,-43,11,-4088
547551255,-1,8,-4,-6,-59,-13,-4099
547552255,-1,7,-6,-6,-55,-57,-4091
547553255,-1,2,0,-6,-88,-41,-4044
547554255,-1,1,-2,-9,-61,-48,-4056
547555255,-1,-4,-7,-14,-41,-12,-4054
547556255,-1,-3,6,-7,-26,-25,-4070
547557255,-1,1,-3,-6,1,33,-4086
547558255,-1,-3,1,-11,-3,63,-4097
547559255,-1,7,-5,-12,29,61,-4121
547560255,-1,1,0,-3,10,78,-4145
547561255,-1,4,0,-2,-1,56,-4159
547562255,-1,12,-12,-6,-24,11,-4144
547563255,-1,9,-6,-4,-63,-22,-4108
547564255,-1,8,-7,-5,-67,-30,-4110
547565255,-1,11,-9,-7,-73,-29,-4105
547566255,-1,2,-4,-5,-74,-60,-4070
547567255,-1,4,-2,-3,-89,-39,-4049
547568255,-1,-2,3,-6,-58,-14,-4070
547569255,-1,0,-4,-11,-31,16,-4080
547570255,-1,-7,-6,-6,-21,21,-4062
547571255,-1,-3,1,-9,-14,80,-4101
547572255,-1,6,-1,-8,-2,78,-4125
547573255,-1,7,-9,-7,12,47,-4113
547574255,-1,6,-3,-6,-10,49,-4100
547575255,-1,15,-7,-5,-6,39,-4105
547576255,-1,11,-7,-10,-8,0,-4081
547577255,-1,-1,-6,-1,-37,-36,-4073
547578255,-1,11,-9,-6,-63,-51,-4035
547579255,-1,4,-2,-5,-48,-41,-4033
547580255,-1,0,-4,-2,-44,-43,-4035
547581255,-1,-8,-9,-8,-43,-36,-4058
547582255,-1,-6,0,-11,-33,30,-4081
547583255,-1,-4,2,-7,-26,47,-4087
547584255,-1,0,-5,-10,5,63,-4119
547585255,-1,0,-1,-8,-27,58,-4148
547586255,-1,10,-4,-13,-24,64,-4156
547587255,-1,3,-3,-9,-51,43,-4156
547588255,-1,5,0,-3,-52,35,-4158
547589255,-1,12,-4,-8,-50,1,-4131
547590255,-1,9,1,-4,-70,-34,-4110
547591255,-1,6,1,-6,-76,-32,-4057
547592255,-1,3,0,-8,-65,-31,-4072
547593255,-1,-3,-1,-7,-41,-51,-4056
547594255,-1,0,-4,-3,-17,-7,-4070
547595255,-1,-9,-4,-5,-22,19,-4068
547596255,-1,-1,-2,-4,-9,16,-4067
547597255,-1,0,-7,-3,8,23,-4082
547598255,-1,-2,-3,-5,17,37,-4068
547599255,-1,5,-4,-4,22,62,-4098
547600255,-1,8,-6,-7,9,65,-4111
547601255,-1,10,-5,-4,1,34,-4116
547602255,-1,9,-5,-8,-21,10,-4117
547603255,-1,10,-5,-4,-22,-21,-4091
547604255,-1,11,-3,-9,-82,-49,-4094
547605255,-1,6,-8,-9,-87,-46,-4085
547606255,-1,10,2,-9,-98,-39,-4094
547607255,-1,0,-4,-6,-93,-54,-4089
547608255,-1,-4,0,-7,-83,-10,-4060
547609255,-1,1,-2,-7,-60,27,-4077
547610255,-1,5,-4,-10,-19,52,-4068
547611255,-1,-5,4,-4,-2,60,-4070
547612255,-1,1,-1,-6,-14,75,-4068
547613255,-1,9,-6,-5,14,64,-4115
547614255,-1,8,-7,-4,23,32,-4119
547615255,-1,7,-4,-5,18,21,-4123
547616255,-1,14,-5,-2,-11,-1,-4100
547617255,-1,-1,-1,-5,4,-37,-4101
547618255,-1,10,-7,-3,-8,-52,-4072
547619255,-1,5,-1,-5,-10,-28,-4059
547620255,-1,4,-3,-7,-31,-34,-4061
547621255,-1,1,-9,-13,-40,-10,-4072
547622255,-1,5,-8,-10,-39,3,-4095
547623255,-1,-4,-5,-5,-37,29,-4106
547624255,-1,-1,-7,-4,-72,46,-4129
547625255,-1,2,-2,-7,-75,51,-4136
547626255,-1,10,-5,-13,-67,50,-4153
547627255,-1,10,-4,-7,-90,-6,-4116
547628255,-1,9,-1,-12,-85,-6,-4104
547629255,-1,6,-2,-8,-77,-4,-4076
547630255,-1,3,1,-7,-42,-7,-4058
547631255,-1,9,4,-7,-9,-15,-4039
547632255,-1,5,-4,-10,1,-15,-4008
547633255,-1,1,-3,-8,26,-6,-4027
547634255,-1,1,0,-8,26,-9,-4055
547635255,-1,1,1,0,51,15,-4060
547636255,-1,3,-10,-4,28,15,-4101
547637255,-1,0,-10,-6,2,13,-4136
547638255,-1,6,-2,-5,10,5,-4115
547639255,-1,10,-9,-1,-36,27,-4122
547640255,-1,7,-13,-6,-45,11,-4113
547641255,-1,4,-10,-12,-63,8,-4098
547642255,-1,8,-11,-8,-78,13,-4118
547643255,-1,5,3,-7,-66,6,-4106
547644255,-1,5,-5,-8,-70,19,-4091
547645255,-1,5,1,-6,-86,15,-4114
547646255,-1,8,-2,-12,-68,0,-4121
547647255,-1,3,2,-6,-64,4,-4104
547648255,-1,3,0,-1,-70,8,-4102
547649255,-1,6,3,-7,-32,15,-4110
547650255,-1,5,0,-9,-11,5,-4102
547651255,-1,0,0,-3,8,-2,-4064
547652255,-1,-6,0,-5,23,19,-4052
547653255,-1,7,0,-4,35,24,-4073
547654255,-1,4,-2,-8,58,21,-4059
547655255,-1,8,-6,-9,24,10,-4090
547656255,-1,3,-4,-3,-18,11,-4074
547657255,-1,4,-5,-6,-15,11,-4076
547658255,-1,8,-12,-7,-26,-17,-4102
547659255,-1,3,-8,-7,-51,-9,-4112
547660255,-1,2,-3,-9,-43,-8,-4120
547661255,-1,7,-11,-9,-69,-15,-4122
547662255,-1,2,-8,-9,-58,-4,-4095
547663255,-1,3,-5,-8,-72,12,-4097
547664255,-1,6,-1,-9,-59,36,-4097
547665255,-1,8,0,-14,-67,0,-4092
547666255,-1,9,-3,-12,-69,3,-4097
547667255,-1,5,4,-12,-66,-3,-4087
547668255,-1,0,-4,-8,-40,-15,-4091
547669255,-1,2,-3,-8,-6,-1,-4080
547670255,-1,1,4,-1,-4,4,-4075
547671255,-1,6,-7,-8,21,29,-4084
547672255,-1,7,-5,-7,16,11,-4072
547673255,-1,4,-7,-9,29,32,-4074
547674255,-1,5,-13,-8,8,20,-4125
547675255,-1,3,-6,-4,-6,14,-4113
547676255,-1,6,-12,-9,-37,-13,-4096
547677255,-1,12,-10,-3,-43,-9,-4091
547678255,-1,2,2,-2,-68,-21,-4086
547679255,-1,1,-6,0,-75,3,-4078
547680255,-1,-2,-3,-5,-70,-1,-4070
547681255,-1,2,1,-6,-72,-11,-4071
547682255,-1,1,-2,-6,-61,13,-4061
547683255,-1,3,-2,-5,-29,30,-4097
547684255,-1,7,-1,-6,-14,44,-4113
547685255,-1,9,-2,-10,-11,19,-4107
547686255,-1,5,-5,-13,-3,28,-4120
547687255,-1,7,-1,-8,-2,24,-4129
547688255,-1,1,-3,-8,6,-7,-4122
547689255,-1,3,-7,-5,-16,-9,-4119
547690255,-1,6,-6,-10,-15,20,-4109
547691255,-1,6,-3,-6,-56,2,-4105
547692255,-1,2,-6,-7,-72,-8,-4088
547693255,-1,5,-9,-6,-76,3,-4076
547694255,-1,3,-6,-7,-72,-5,-4078
547695255,-1,4,-13,-9,-67,5,-4095
547696255,-1,8,-4,-11,-63,0,-4090
547697255,-1,-3,1,-5,-52,-4,-4100
547698255,-1,5,-6,-12,-66,-6,-4097
547699255,-1,2,0,-7,-47,19,-4096
547700255,-1,4,1,-8,-28,17,-4097
547701255,-1,6,1,-8,1,6,-4088
547702255,-1,1,4,-7,-5,29,-4084
547703255,-1,4,-1,-3,-8,17,-4088
547704255,-1,4,-6,-3,-5,21,-4056
547705255,-1,5,-6,-5,-3,1,-4061
547706255,-1,4,-7,-8,-14,-1,-4055
547707255,-1,5,-5,-9,-24,-24,-4050
547708255,-1,5,-11,-3,-35,-18,-4080
547709255,-1,4,-5,-7,-53,-32,-4072
547710255,-1,-4,-5,-3,-46,-8,-4069
547711255,-1,2,-4,-9,-42,10,-4101
547712255,-1,3,-2,-7,-20,9,-4095
547713255,-1,0,0,-6,-27,42,-4116
547714255,-1,5,-6,-9,-30,53,-4134
547715255,-1,7,-3,-6,-48,63,-4125
547716255,-1,10,-5,-6,-37,48,-4140
547717255,-1,12,-10,-7,-19,26,-4148
547718255,-1,7,-5,-7,-62,14,-4123
547719255,-1,12,-4,-9,-62,-15,-4124
547720255,-1,2,-6,-8,-56,-48,-4106
547721255,-1,1,3,-3,-52,-41,-4110
547722255,-1,4,-4,-13,-43,-44,-4064
547723255,-1,0,-2,-8,-54,-33,-4046
547724255,-1,0,-7,-7,-30,-10,-4075
547725255,-1,-1,-6,-9,-11,3,-4063
547726255,-1,-5,-2,-4,-18,20,-4063
547727255,-1,-3,-8,-11,24,52,-4044
547728255,-1,2,-4,-7,23,58,-4077
547729255,-1,14,-6,-8,11,46,-4078
547730255,-1,9,-7,-3,14,17,-4107
547731255,-1,12,-5,-8,-20,21,-4112
547732255,-1,6,-6,-5,-37,-35,-4112
547733255,-1,9,-7,-6,-56,-31,-4088
547734255,-1,0,-6,-1,-81,-27,-4093
547735255,-1,9,-6,-5,-86,-62,-4077
547736255,-1,1,-2,-2,-94,-41,-4042
547737255,-1,-5,0,-2,-91,-18,-4048
547738255,-1,1,-2,-10,-19,49,-4039
547739255,-1,-7,7,-11,-7,63,-4053
547740255,-1,2,-7,-7,-16,51,-4084
547741255,-1,2,-5,-10,2,71,-4076
547742255,-1,11,-2,-10,-29,41,-4117
547743255,-1,7,-5,-7,5,27,-4116
547744255,-1,9,-7,-7,4,32,-4127
547745255,-1,6,-10,-3,-23,3,-4135
547746255,-1,9,-8,-7,-31,-22,-4112
547747255,-1,5,-6,-8,-48,-28,-4085
547748255,-1,4,-3,-3,-51,-5,-4091
547749255,-1,3,-7,-7,-54,-30,-4090
547750255,-1,-3,-5,-8,-63,-8,-4068
547751255,-1,-1,-6,-9,-62,23,-4083
547752255,-1,1,-1,-12,-35,23,-4088
547753255,-1,1,-1,-1,-42,37,-4094
547754255,-1,6,-7,-10,-54,32,-4105
547755255,-1,7,-2,-5,-37,40,-4120
547756255,-1,6,-1,-8,-51,28,-4113
547757255,-1,2,-2,-6,-28,31,-4118
547758255,-1,8,-2,-8,-19,-16,-4091
547759255,-1,9,-5,-7,-39,-10,-4081
547760255,-1,11,-3,-10,-30,-38,-4064
547761255,-1,3,0,-11,-2,-33,-4049
547762255,-1,2,-5,-14,-15,-22,-4034
547763255,-1,-2,-4,-6,1,8,-4047
547764255,-1,3,-10,-13,21,17,-4071
547765255,-1,6,-9,-8,-33,20,-4105
547766255,-1,-2,-2,-5,-27,38,-4106
547767255,-1,-3,-8,-2,-47,34,-4098
547768255,-1,8,-3,-6,-57,22,-4125
547769255,-1,11,-5,-7,-58,7,-4108
547770255,-1,7,1,-8,-58,2,-4093
547771255,-1,5,2,-7,-75,1,-4090
547772255,-1,7,-5,-11,-59,-8,-4068
547773255,-1,2,1,-7,-41,-17,-4063
547774255,-1,5,0,-9,-31,-2,-4073
547775255,-1,0,-3,-7,-30,-7,-4109
547776255,-1,0,2,-7,-21,3,-4101
547777255,-1,1,0,-4,-33,12,-4112
547778255,-1,3,-5,-9,-26,4,-4107
547779255,-1,-2,-2,-7,-32,9,-4078
547780255,-1,-4,-1,-4,-19,32,-4086
547781255,-1,1,-4,-4,-32,49,-4074
547782255,-1,2,-5,-4,9,41,-4072
547783255,-1,6,-10,-6,-24,26,-4069
547784255,-1,2,-2,-5,-21,17,-4070
547785255,-1,5,-5,-12,-14,17,-4069
547786255,-1,9,-5,-7,-30,19,-4096
547787255,-1,-1,-3,-5,-49,-7,-4139
547788255,-1,11,-8,-6,-67,-31,-4139
547789255,-1,3,-7,-4,-64,-38,-4135
547790255,-1,4,2,-3,-70,-3,-4102
547791255,-1,6,-5,-5,-60,-10,-4099
547792255,-1,2,3,-6,-64,16,-4089
547793255,-1,-1,-2,-6,-46,22,-4068
547794255,-1,2,-1,-4,-36,30,-4061
547795255,-1,1,0,-5,-6,36,-4070
547796255,-1,5,-8,-9,5,58,-4074
547797255,-1,6,-10,-11,-4,26,-4111
547798255,-1,3,-3,-11,-12,3,-4101
547799255,-1,7,-13,-6,-10,-18,-4116
547800255,-1,10,-4,-5,-44,-34,-4100
547801255,-1,7,-5,-3,-22,-47,-4090
547802255,-1,1,-5,0,-35,-10,-4081
547803255,-1,0,0,-6,-36,-11,-4069
547804255,-1,3,-4,-7,-32,-22,-4070
547805255,-1,0,-5,-6,-29,37,-4058
547806255,-1,3,0,-2,-29,54,-4086
547807255,-1,3,-6,-5,-37,54,-4102
547808255,-1,3,-4,-1,-24,32,-4108
547809255,-1,4,-7,-6,-46,38,-4111
547810255,-1,16,-8,-7,-65,16,-4120
547811255,-1,6,-1,-11,-46,-22,-4130
547812255,-1,5,-2,-3,-46,-14,-4117
547813255,-1,4,-1,-3,-50,-25,-4097
547814255,-1,4,1,-5,-33,-18,-4073
547815255,-1,3,-10,-14,-10,-13,-4060
547816255,-1,-2,1,-3,-14,-23,-4055
547817255,-1,2,-6,-12,-8,22,-4054
547818255,-1,-1,-5,-12,-12,48,-4063
547819255,-1,2,-1,-8,-10,43,-4070
547820255,-1,11,-7,-13,0,18,-4089
547821255,-1,6,-3,-6,-10,22,-4092
547822255,-1,7,-7,-4,-11,17,-4076
547823255,-1,13,-7,-4,-34,-3,-4088
547824255,-1,8,-3,1,-12,-7,-4096
547825255,-1,8,-5,-8,-30,-5,-4093
547826255,-1,7,-5,-7,-31,-1,-4087
547827255,-1,7,-10,-5,-48,2,-4096
547828255,-1,3,-6,-5,-65,-16,-4086
547829255,-1,4,-5,-8,-86,-3,-4093
547830255,-1,-3,-2,-3,-94,-1,-4099
547831255,-1,6,-4,-8,-57,24,-4116
547832255,-1,0,-4,-4,-62,8,-4116
547833255,-1,4,-1,-10,-28,24,-4089
547834255,-1,2,-3,-2,-27,56,-4078
547835255,-1,3,-3,-8,-15,45,-4089
547836255,-1,11,-9,-5,-3,36,-4083
547837255,-1,4,-4,-6,-24,16,-4067
547838255,-1,4,-3,-3,-34,25,-4080
547839255,-1,7,-5,-8,-23,-39,-4085
547840255,-1,4,-5,-6,-10,-44,-4074
547841255,-1,4,-2,-6,-38,-36,-4040
547842255,-1,0,-2,-7,-12,-19,-4059
547843255,-1,-2,-4,-11,18,14,-4057
547844255,-1,-1,-4,-9,14,19,-4082
547845255,-1,9,-7,-5,19,45,-4122
547846255,-1,12,-6,-6,-18,50,-4122
547847255,-1,12,-8,-8,-58,18,-4118
547848255,-1,8,-8,-9,-70,-2,-4103
547849255,-1,4,-10,-6,-88,-11,-4101
547850255,-1,7,-4,-6,-79,3,-4095
547851255,-1,-4,-4,-3,-93,-25,-4091
547852255,-1,6,0,2,-60,-27,-4074
547853255,-1,5,4,-8,-48,-16,-4058
547854255,-1,1,-4,-7,-39,8,-4085
547855255,-1,-1,-5,-9,-19,26,-4095
547856255,-1,-3,4,-7,-22,39,-4093
547857255,-1,4,1,-6,-4,20,-4096
547858255,-1,9,-4,-8,-22,14,-4084
547859255,-1,5,-4,-4,4,7,-4088
547860255,-1,9,-6,-7,-2,-4,-4094
547861255,-1,7,1,-5,4,0,-4065
547862255,-1,4,-2,-1,-15,5,-4060
547863255,-1,6,-8,-3,-17,4,-4076
547864255,-1,6,-5,-4,-14,21,-4072
547865255,-1,7,-3,-7,-26,9,-4100
547866255,-1,11,-5,-7,-27,-17,-4102
547867255,-1,5,3,-5,-46,-15,-4098
547868255,-1,7,-9,-9,-57,-19,-4118
547869255,-1,1,-5,-5,-78,-16,-4125
547870255,-1,-1,-5,-12,-53,-8,-4108
547871255,-1,5,-7,-9,-60,7,-4116
547872255,-1,1,1,-11,-59,9,-4110
547873255,-1,8,0,-9,-61,20,-4096
547874255,-1,3,-4,-8,-47,26,-4071
547875255,-1,7,-1,-7,-53,37,-4079
547876255,-1,4,-5,-8,-58,35,-4085
547877255,-1,8,-1,-8,-29,22,-4073
547878255,-1,6,-4,-10,8,6,-4061
547879255,-1,9,-9,-6,0,4,-4066
547880255,-1,4,-6,-5,2,-2,-4074
547881255,-1,10,-4,-6,1,-15,-4087
547882255,-1,6,-6,-4,-5,-22,-4085
547883255,-1,2,-8,-3,-7,-2,-4096
547884255,-1,2,-6,-7,-27,-4,-4084
547885255,-1,7,-5,-7,-25,-1,-4085
547886255,-1,6,-4,-15,-29,3,-4089
547887255,-1,3,-10,-12,-42,29,-4072
547888255,-1,6,-7,-10,-65,48,-4083
547889255,-1,5,-6,-3,-50,5,-4115
547890255,-1,5,-4,-9,-70,3,-4102
547891255,-1,4,-5,-6,-72,3,-4115
547892255,-1,7,-7,-1,-45,14,-4091
547893255,-1,2,2,-3,-41,0,-4098
547894255,-1,8,-5,-7,-22,4,-4111
547895255,-1,8,-5,-6,-28,0,-4111
547896255,-1,3,2,-5,-32,12,-4115
547897255,-1,6,-2,-9,-22,-27,-4106
547898255,-1,0,-3,-4,-27,-12,-4079
547899255,-1,2,-4,-8,-51,-4,-4087
547900255,-1,4,-8,-7,-38,17,-4076
547901255,-1,4,1,-7,-15,-1,-4046
547902255,-1,4,-10,-11,-33,17,-4053
547903255,-1,2,0,-4,-20,11,-4064
547904255,-1,-3,-2,-4,-14,16,-4064
547905255,-1,6,-5,-8,-22,38,-4065
547906255,-1,10,-6,-9,-10,29,-4103
547907255,-1,0,-7,-4,-23,23,-4107
547908255,-1,9,-9,-13,-36,-17,-4119
547909255,-1,8,-10,-7,-25,-46,-4097
547910255,-1,-2,-6,-8,-65,-7,-4101
547911255,-1,4,-8,-10,-31,-36,-4128
547912255,-1,6,-2,-6,-27,-6,-4096
547913255,-1,-1,-6,-8,-47,19,-4080
547914255,-1,4,-4,-9,-62,24,-4087
547915255,-1,8,0,-11,-50,24,-4062
547916255,-1,4,-8,-11,-29,54,-4077
547917255,-1,0,1,-8,-18,59,-4061
547918255,-1,9,-3,-6,-29,43,-4078
547919255,-1,10,-8,-9,2,26,-4103
547920255,-1,9,-2,-4,-27,-6,-4120
547921255,-1,7,-6,-1,-36,-22,-4107
547922255,-1,1,-2,-7,-56,-32,-4094
547923255,-1,2,1,-8,-50,-39,-4079
547924255,-1,2,-7,-7,-25,-4,-4088
547925255,-1,3,-1,-3,-43,5,-4078
547926255,-1,5,-1,-7,-30,11,-4071
547927255,-1,2,-9,-7,-26,40,-4062
547928255,-1,0,-1,-4,-44,50,-4084
547929255,-1,5,-1,-4,-9,42,-4103
547930255,-1,10,-8,-5,-12,34,-4118
547931255,-1,8,-7,-10,-30,4,-4128
547932255,-1,7,-13,-4,-55,-31,-4121
547933255,-1,3,-3,-12,-58,-42,-4102
547934255,-1,1,1,-3,-42,-35,-4102
547935255,-1,3,-6,-9,-25,-11,-4089
547936255,-1,-4,4,-6,-20,-1,-4080
547937255,-1,7,-8,-9,-25,3,-4083
547938255,-1,6,-1,-5,-22,44,-4075
547939255,-1,1,-7,-9,-47,46,-4080
547940255,-1,8,-1,0,-33,39,-4098
547941255,-1,2,-7,-5,-33,16,-4104
547942255,-1,9,-1,-8,-46,13,-4098
547943255,-1,8,-1,-5,-59,-3,-4106
547944255,-1,7,-3,0,-54,-34,-4086
547945255,-1,5,-2,-3,-47,-40,-4068
547946255,-1,-2,-3,-8,-45,-13,-4051
547947255,-1,1,-1,-10,-16,22,-4066
547948255,-1,6,-10,-6,19,0,-4028
547949255,-1,1,1,-11,1,23,-4047
547950255,-1,9,-7,-12,-2,8,-4067
547951255,-1,3,-4,-9,-14,30,-4089
547952255,-1,3,-2,-11,-18,19,-4120
547953255,-1,4,-5,-7,-32,19,-4107
547954255,-1,4,-2,-4,-58,-1,-4119
547955255,-1,2,-7,1,-76,-23,-4080
547956255,-1,10,-5,-6,-68,5,-4059
547957255,-1,3,4,-2,-51,30,-4084
547958255,-1,11,0,-7,-37,29,-4072
547959255,-1,5,-3,-6,-41,19,-4095
547960255,-1,7,-1,-10,-22,20,-4088
547961255,-1,5,-3,-6,-40,29,-4104
547962255,-1,7,-4,-11,-3,1,-4119
547963255,-1,4,-2,-5,-8,8,-4138
547964255,-1,7,-10,-13,-26,25,-4113
547965255,-1,7,-8,-11,-51,-27,-4114
547966255,-1,7,-4,-5,-44,-43,-4063
547967255,-1,2,-2,-4,-41,-21,-4067
547968255,-1,4,-2,-5,-30,9,-4053
547969255,-1,5,0,-5,16,54,-4057
547970255,-1,7,-7,-6,-2,41,-4085
547971255,-1,5,-11,-5,-3,18,-4095
547972255,-1,5,-4,-6,-22,23,-4091
547973255,-1,5,-1,-6,-37,0,-4113
547974255,-1,5,-5,-4,-21,-18,-4131
547975255,-1,2,-10,-7,-44,-1,-4121
547976255,-1,6,-5,-12,-82,-26,-4134
547977255,-1,5,0,-6,-73,-30,-4134
547978255,-1,1,-2,-9,-77,-21,-4082
547979255,-1,0,-6,-6,-68,8,-4056
547980255,-1,-1,-4,-7,-13,48,-4056
547981255,-1,-3,1,-8,-27,47,-4060
547982255,-1,5,-8,-11,-12,35,-4093
547983255,-1,4,-1,-8,-18,55,-4066
547984255,-1,11,-5,-10,-36,30,-4113
547985255,-1,7,-2,-8,-20,-10,-4102
547986255,-1,7,-7,-2,-23,-16,-4096
547987255,-1,6,-5,-3,-39,-42,-4103
547988255,-1,6,-7,-9,-23,-13,-4055
547989255,-1,0,-3,-10,1,-6,-4071
547990255,-1,7,-3,-6,5,-9,-4074
547991255,-1,4,-6,-7,-8,22,-4041
547992255,-1,1,-2,-13,-37,59,-4077
547993255,-1,5,-8,-10,-6,48,-4103
547994255,-1,5,-3,-8,-18,-6,-4115
547995255,-1,4,-4,-7,-23,6,-4121
547996255,-1,5,-5,-6,-66,26,-4114
547997255,-1,2,1,-7,-68,-32,-4139
547998255,-1,4,-6,-2,-34,-31,-4112
547999255,-1,3,1,-6,-54,24,-4100
548000255,-1,1,0,-5,-64,18,-4124
548001255,-1,1,-10,-6,-38,1,-4073
548002255,-1,-2,-2,-5,-56,23,-4063
548003255,-1,2,1,-10,-38,48,-4093
548004255,-1,7,-7,-5,-32,32,-4085
548005255,-1,1,0,-5,-31,-1,-4075
548006255,-1,-2,-6,-7,-37,-4,-4090
548007255,-1,5,-3,-1,-43,6,-4093
548008255,-1,8,-10,-4,-16,-23,-4088
548009255,-1,8,-3,-5,-13,-22,-4066
548010255,-1,1,-2,-3,-29,0,-4048
548011255,-1,8,-3,-3,-44,-11,-4058
548012255,-1,1,-4,-9,-17,-6,-4032
548013255,-1,1,-1,-5,-21,4,-4044
548014255,-1,9,-10,-5,-16,39,-4062
548015255,-1,4,-1,-6,-14,8,-4068
548016255,-1,3,-4,-8,21,25,-4086
548017255,-1,1,-7,-13,-11,51,-4109
548018255,-1,4,-3,-7,-21,25,-4151
548019255,-1,8,-13,-6,-30,-39,-4155
548020255,-1,5,-10,-7,-69,-4,-4142
548021255,-1,0,-6,-5,-99,-22,-4143
548022255,-1,8,-2,-2,-92,-24,-4132
548023255,-1,9,-5,-7,-77,-12,-4082
548024255,-1,1,1,-6,-63,15,-4072
548025255,-1,5,0,-3,-76,40,-4054
548026255,-1,6,1,-8,-15,8,-4050
548027255,-1,4,-1,-8,-16,29,-4043
548028255,-1,3,-8,-9,6,68,-4084
548029255,-1,10,-3,-3,10,60,-4147
548030255,-1,7,-5,-5,15,1,-4144
548031255,-1,12,-5,-5,-66,-21,-4119
548032255,-1,10,-6,-4,-63,-50,-4113
548033255,-1,8,-6,-7,-35,-31,-4068
548034255,-1,0,-4,-2,-38,-26,-4058
548035255,-1,4,-3,-4,7,15,-4033
548036255,-1,-2,2,-5,7,34,-4026
548037255,-1,0,-5,-4,15,38,-4071
548038255,-1,0,-12,-13,-14,51,-4079
548039255,-1,6,-8,-10,-36,45,-4110
548040255,-1,6,-12,-9,-36,19,-4132
548041255,-1,7,-11,-9,-73,29,-4153
548042255,-1,4,-7,-9,-91,-29,-4161
548043255,-1,5,-4,-8,-87,-51,-4089
548044255,-1,2,0,-6,-76,-54,-4076
548045255,-1,-2,4,-5,-57,-28,-4049
548046255,-1,0,-5,-11,-21,22,-4024
548047255,-1,2,-1,-11,2,24,-4051
548048255,-1,2,-3,-5,5,62,-4078
548049255,-1,5,-1,-4,0,62,-4100
548050255,-1,3,-5,-6,6,57,-4111
548051255,-1,8,-8,-7,-23,2,-4131
548052255,-1,5,-7,-4,-47,-36,-4121
548053255,-1,4,-6,-7,-50,-31,-4126
548054255,-1,3,-8,1,-47,-38,-4089
548055255,-1,3,-7,-4,-47,-37,-4088
548056255,-1,7,-7,-8,-49,8,-4050
548057255,-1,4,-8,-9,-46,19,-4034
548058255,-1,7,-9,-5,-36,41,-4059
548059255,-1,2,-3,-9,-29,33,-4062
548060255,-1,5,-5,-9,-33,23,-4082
548061255,-1,9,0,-10,-33,18,-4117
548062255,-1,6,-3,-15,-38,-14,-4114
548063255,-1,6,-4,1,-30,-6,-4134
548064255,-1,2,5,-6,-13,6,-4117
548065255,-1,5,-6,-4,-10,23,-4110
548066255,-1,8,-4,-8,-17,9,-4116
548067255,-1,3,-5,-7,-34,4,-4112
548068255,-1,12,-4,-12,-58,11,-4091
548069255,-1,7,-3,-10,-71,8,-4087
548070255,-1,7,-7,-12,-54,-24,-4091
548071255,-1,3,-6,-11,-80,-19,-4077
548072255,-1,6,-2,-9,-82,-7,-4075
548073255,-1,4,-4,-7,-81,-1,-4073
548074255,-1,-5,-1,-8,-40,1,-4064
548075255,-1,8,-3,-3,-46,30,-4099
548076255,-1,-2,-5,-7,-10,-4,-4088
548077255,-1,-1,2,-6,-18,17,-4084
548078255,-1,7,-3,-9,-13,22,-4062
548079255,-1,2,-3,-7,35,35,-4076
548080255,-1,8,-3,-7,25,30,-4105
548081255,-1,4,-8,-6,10,-6,-4116
548082255,-1,7,-2,-4,6,-13,-4108
548083255,-1,0,-7,-3,-31,-6,-4102
548084255,-1,5,-9,-5,-45,-15,-4108
548085255,-1,3,-5,-6,-72,-35,-4105
548086255,-1,9,-11,-10,-81,-10,-4090
548087255,-1,3,-6,-2,-75,-7,-4087
548088255,-1,2,-5,-10,-73,-16,-4070
548089255,-1,-1,-11,-9,-52,32,-4056
548090255,-1,-1,0,-8,-36,45,-4089
548091255,-1,0,-5,-11,-11,65,-4095
548092255,-1,4,-10,-10,-14,75,-4121
548093255,-1,5,-4,-9,-11,0,-4161
548094255,-1,8,-7,-10,-22,-8,-4110
548095256,-1,8,-1,-6,-55,-34,-4118
548096255,-1,13,-5,-7,-30,-35,-4115
548097257,-1,5,-7,-7,-16,-47,-4093
548098255,-1,3,-5,-5,-56,-29,-4086
548099255,-1,9,-5,-5,-40,-6,-4041
548100255,-1,-1,-6,-9,-42,-1,-4032
548101255,-1,0,-2,-7,-27,24,-4022
548102255,-1,3,-10,-9,-7,32,-4031
548103255,-1,2,-6,-11,-21,38,-4070
548104255,-1,3,-10,-11,-37,20,-4089
548105255,-1,6,-1,-8,-41,2,-4125
548106255,-1,6,3,-1,-38,-13,-4115
548107255,-1,11,0,-2,-34,2,-4127
548108255,-1,3,0,-4,-17,10,-4113
548109255,-1,3,-4,-3,-15,-2,-4087
548110255,-1,6,-10,-7,-30,11,-4101
548111255,-1,2,-1,-8,-44,17,-4070
548112255,-1,7,-1,-6,-33,22,-4064
548113255,-1,4,-2,-6,-42,0,-4069
548114255,-1,6,-3,-11,-49,-6,-4072
548115255,-1,3,-2,-6,-57,-4,-4081
548116255,-1,1,-6,-6,-53,-6,-4089
548117255,-1,2,-1,-6,-17,1,-4105
548118255,-1,1,0,-8,-28,39,-4108
548119255,-1,4,-3,-5,-26,49,-4115
548120255,-1,8,0,-6,0,31,-4129
548121255,-1,6,-6,-2,-20,32,-4096
548122255,-1,3,-3,-9,-42,26,-4117
548123255,-1,11,-7,-5,-28,-2,-4110
548124255,-1,9,-6,-5,-35,-12,-4078
548125255,-1,8,-8,-10,-50,-26,-4076
548126255,-1,7,-8,-8,-45,-32,-4084
548127255,-1,1,-6,-13,-56,-18,-4075
548128255,-1,1,2,-12,-55,-17,-4079
548129255,-1,-1,-3,-8,-28,14,-4072
548130255,-1,0,-1,-4,-50,7,-4114
548131255,-1,2,-2,-6,-23,43,-4071
548132255,-1,4,-3,-13,-20,24,-4080
548133255,-1,5,-2,-7,-27,37,-4089
548134255,-1,5,-5,-13,28,35,-4070
548135255,-1,9,-5,-7,10,28,-4105
548136255,-1,3,-5,-2,-3,15,-4103
548137255,-1,3,-6,-6,-20,1,-4116
548138255,-1,12,-7,-2,-57,-8,-4123
548139255,-1,6,-9,-6,-68,-57,-4120
548140255,-1,2,-6,-5,-94,-60,-4086
548141255,-1,2,-2,-9,-92,-33,-4078
548142255,-1,2,-9,-9,-76,-18,-4060
548143255,-1,-9,-2,-5,-24,13,-4060
548144255,-1,1,-3,-6,-10,63,-4058
548145255,-1,-2,0,-9,13,87,-4092
548146255,-1,8,-2,-11,21,95,-4093
548147255,-1,15,-6,-5,7,62,-4143
548148255,-1,8,-6,-5,-3,16,-4129
548149255,-1,13,-8,-4,-33,-17,-4156
548150255,-1,10,-5,-7,-64,-66,-4111
548151255,-1,7,-8,-1,-51,-90,-4101
548152255,-1,5,-5,-10,-54,-76,-4047
548153255,-1,-2,-1,-6,-51,-37,-4027
548154255,-1,0,-3,-6,-7,11,-4022
548155255,-1,-8,2,-5,2,25,-4028
548156255,-1,-3,-3,-7,15,90,-4075
548157255,-1,4,-10,-7,-11,80,-4105
548158255,-1,10,-13,-13,-31,35,-4142
548159255,-1,9,-5,-7,-49,6,-4128
548160255,-1,8,-7,-6,-62,-9,-4124
548161255,-1,11,-5,-6,-68,-23,-4127
548162255,-1,6,-2,-4,-54,-32,-4075
548163255,-1,7,7,-1,-60,-5,-4057
548164255,-1,8,-7,-5,-51,-8,-4054
548165255,-1,5,-6,-5,-24,11,-4048
548166255,-1,5,-4,-14,-15,29,-4038
548167255,-1,3,0,-12,-16,24,-4063
548168255,-1,-4,-8,-11,7,8,-4086
548169255,-1,2,0,-15,-22,0,-4089
548170255,-1,3,3,-9,-30,5,-4080
548171255,-1,5,-5,-7,-25,19,-4085
548172255,-1,5,-9,-7,10,14,-4090
548173255,-1,1,-1,-6,10,12,-4088
548174255,-1,8,-5,-3,-8,35,-4117
548175255,-1,-1,-10,-3,-27,23,-4116
548176255,-1,8,-8,-11,-23,5,-4118
548177255,-1,4,-9,-7,-71,5,-4116
548178255,-1,8,-1,-9,-91,-32,-4135
548179255,-1,7,-8,-8,-83,-27,-4128
548180255,-1,3,-5,-8,-107,-48,-4120
548181255,-1,-1,1,-5,-89,-48,-4082
548182255,-1,-4,0,-4,-36,17,-4071
548183255,-1,1,3,-1,-25,37,-4081
548184255,-1,6,-1,-10,7,61,-4087
548185255,-1,3,2,-9,12,64,-4077
548186255,-1,4,-7,-6,29,69,-4096
548187255,-1,8,-3,-7,14,64,-4103
548188255,-1,8,-7,-10,-11,15,-4118
548189255,-1,11,-3,-7,-18,-30,-4128
548190255,-1,6,-6,-6,-66,-66,-4086
548191255,-1,3,-8,-5,-82,-90,-4073
548192255,-1,5,-6,-8,-75,-89,-4040
548193255,-1,1,-4,-6,-39,-55,-4015
548194255,-1,-3,-8,-3,-30,8,-4046
548195255,-1,-3,-6,-8,-14,66,-4057
548196255,-1,1,-5,-3,-2,73,-4067
548197255,-1,4,-12,-6,-11,92,-4100
548198255,-1,0,-8,-14,-22,112,-4118
548199255,-1,9,-6,-4,-45,33,-4162
548200255,-1,10,1,-8,-61,-9,-4144
548201255,-1,12,4,-4,-79,-41,-4134
548202255,-1,9,3,-1,-70,-73,-4096
548203255,-1,5,0,-5,-50,-46,-4063
548204255,-1,2,-1,-2,-29,-34,-4054
548205255,-1,3,0,-3,-26,-16,-4050
548206255,-1,1,-9,-10,-9,20,-4037
548207255,-1,-4,-1,-6,-20,36,-4069
548208255,-1,1,-3,-6,-4,54,-4073
548209255,-1,4,-8,-12,-20,52,-4094
548210255,-1,3,-1,-6,-13,43,-4115
548211255,-1,10,-9,-8,-9,33,-4114
548212255,-1,7,-3,-8,-33,2,-4116
548213255,-1,4,-1,-6,-12,8,-4097
548214255,-1,4,-10,-5,-9,25,-4099
548215255,-1,8,-4,-5,-4,10,-4112
548216255,-1,6,-10,-5,-38,-21,-4120
548217255,-1,4,-5,-8,-57,-31,-4101
548218255,-1,1,-4,-4,-87,-21,-4113
548219255,-1,-1,-4,-5,-58,-29,-4125
548220255,-1,6,1,-9,-62,-17,-4077
548221255,-1,0,2,-6,-36,3,-4095
548222255,-1,1,-4,-8,-33,26,-4086
548223255,-1,9,-3,-4,-29,48,-4075
548224255,-1,4,-2,-2,-18,42,-4100
548225255,-1,5,-3,-5,3,51,-4100
548226255,-1,8,-4,-3,-13,48,-4083
548227255,-1,10,-9,-4,-14,7,-4077
548228255,-1,8,-7,-9,-20,-15,-4081
548229255,-1,11,-4,-8,-32,-19,-4069
548230255,-1,8,-8,-8,-50,-55,-4065
548231255,-1,6,-1,-4,-31,-50,-4054
548232255,-1,-3,-2,-6,-11,-25,-4057
548233255,-1,0,-2,-6,-13,-4,-4065
548234255,-1,-5,2,-5,-8,27,-4084
548235255,-1,-2,-4,-8,-14,64,-4099
548236255,-1,0,-7,-5,-21,38,-4122
548237255,-1,6,-5,-7,-28,45,-4120
548238255,-1,12,-11,-10,-38,39,-4127
548239255,-1,3,1,-6,-73,24,-4128
548240255,-1,12,-2,-5,-80,2,-4109
548241255,-1,5,-2,-5,-71,-13,-4114
548242255,-1,7,0,-7,-74,-28,-4097
548243255,-1,2,-5,-2,-73,-33,-4082
548244255,-1,8,-3,-5,-30,-28,-4069
548245255,-1,1,0,-7,-13,1,-4084
548246255,-1,-2,-1,-8,3,-2,-4073
548247255,-1,1,1,-8,-10,24,-4070
548248255,-1,4,-7,-5,14,62,-4092
548249255,-1,-2,-2,-10,16,63,-4100
548250255,-1,5,-2,-6,-2,57,-4098
548251255,-1,12,-5,-8,0,25,-4098
548252255,-1,6,-1,-5,-17,25,-4103
548253255,-1,6,-10,-6,-46,-38,-4096
548254255,-1,8,-7,-2,-42,-51,-4094
548255255,-1,3,-4,-5,-41,-63,-4083
548256255,-1,8,-5,-3,-71,-80,-4083
548257255,-1,-2,1,-9,-47,16,-4051
548258255,-1,1,1,-9,-52,-52,-4099
548259255,-1,0,-3,-14,-39,80,-4025
548260255,-1,-4,-2,-10,-62,44,-4118
548261255,-1,2,-3,-11,29,51,-4141
548262255,-1,2,-4,-8,-45,89,-4084
548263255,-1,9,0,-3,-66,45,-4153
548264255,-1,4,-7,-4,2,48,-4089
548265255,-1,10,1,-4,-78,-11,-4098
548266255,-1,8,0,-9,-22,-4,-4081
548267255,-1,9,-4,-5,-59,-45,-4051
548268255,-1,1,-2,-7,-30,-49,-4049
548269255,-1,0,-5,-4,-24,-63,-4027
548270255,-1,2,-4,-7,-2,11,-4045
548271255,-1,-4,-2,-7,-1,12,-4075
548272255,-1,-3,-6,-3,-1,11,-4100
548273255,-1,0,-4,-6,-22,39,-4110
548274255,-1,3,-6,-8,-44,25,-4103
548275255,-1,8,-11,-8,-39,31,-4095
548276255,-1,0,0,-4,-63,20,-4087
548277255,-1,7,-1,-8,-45,16,-4088
548278255,-1,1,0,0,-52,33,-4062
548279255,-1,7,-2,-4,-51,8,-4076
548280255,-1,10,-6,-7,-43,-2,-4059
548281255,-1,5,-4,-4,-42,-8,-4075
548282255,-1,5,-3,-9,-36,-6,-4095
548283255,-1,2,-4,-9,-21,-7,-4096
548284255,-1,9,-1,-7,-27,-12,-4113
548285255,-1,4,-4,-10,-32,-3,-4116
548286255,-1,3,-6,-9,-22,0,-4120
548287255,-1,0,0,-8,6,48,-4081
548288255,-1,-2,-7,-5,-4,60,-4097
548289255,-1,4,-8,-6,12,55,-4135
548290255,-1,1,-3,-3,-20,62,-4111
548291255,-1,10,-7,-5,-58,51,-4128
548292255,-1,3,-1,-1,-54,44,-4132
548293255,-1,6,-9,-1,-78,-47,-4109
548294255,-1,5,-4,-9,-80,-57,-4077
548295255,-1,3,0,-9,-92,-70,-4082
548296255,-1,-3,-1,-8,-66,-47,-4051
548297255,-1,-5,4,-10,-39,-41,-4052
548298255,-1,2,1,-2,-21,-4,-4056
548299255,-1,3,-5,-6,-9,42,-4058
548300255,-1,2,-1,-9,24,43,-4064
548301255,-1,5,-2,-11,23,61,-4064
548302255,-1,6,-4,-7,30,62,-4094
548303255,-1,3,-5,-5,14,56,-4125
548304255,-1,13,-2,-10,-1,22,-4116
548305255,-1,10,-7,-12,-23,-15,-4119
548306255,-1,5,-2,-5,-45,-30,-4100
548307255,-1,8,-7,-5,-57,-40,-4094
548308255,-1,1,-5,-9,-75,-52,-4096
548309255,-1,-1,-3,-7,-76,-38,-4086
548310255,-1,-2,-4,-6,-99,-49,-4084
548311255,-1,-6,-3,-11,-87,-14,-4084
548312255,-1,-2,-1,-10,-81,7,-4090
548313255,-1,-4,1,-11,-46,58,-4095
548314255,-1,0,-4,-8,-48,78,-4114
548315255,-1,2,2,-6,-31,82,-4119
548316255,-1,5,1,-8,-10,74,-4120
548317255,-1,19,-8,-9,-12,49,-4097
548318255,-1,14,-7,-7,-4,-6,-4073
548319255,-1,11,-5,-11,4,-26,-4075
548320255,-1,7,-7,-5,2,-53,-4062
548321255,-1,7,-5,-8,-9,-47,-4059
548322255,-1,2,-7,-7,-21,-60,-4060
548323255,-1,1,-8,-6,-22,-34,-4042
548324255,-1,-3,-1,-10,-19,-13,-4062
548325255,-1,-3,-5,-7,-19,38,-4081
548326255,-1,-2,-6,-9,-38,45,-4090
548327255,-1,3,1,-9,-59,57,-4105
548328255,-1,6,-2,-4,-46,51,-4129
548329255,-1,6,7,-8,-37,49,-4123
548330255,-1,6,-2,-9,-48,47,-4105
548331255,-1,10,-6,-6,-35,17,-4125
548332255,-1,12,-8,-8,-33,-3,-4121
548333255,-1,12,2,-11,-27,-8,-4126
548334255,-1,7,0,-4,-44,-27,-4125
548335255,-1,-1,-5,-3,-40,-51,-4107
548336255,-1,3,-7,-10,-35,-19,-4095
548337255,-1,1,1,-8,-34,-17,-4087
548338255,-1,5,-8,-10,-40,-1,-4081
548339255,-1,2,-9,-7,-30,7,-4074
548340255,-1,2,-2,-5,-13,34,-4048
548341255,-1,1,-1,-5,-9,66,-4072
548342255,-1,6,-4,-5,3,67,-4082
548343255,-1,9,-4,-7,-7,53,-4093
548344255,-1,11,-6,-7,-2,50,-4115
548345255,-1,11,-5,-2,-42,5,-4143
548346255,-1,5,-10,-9,-73,-39,-4139
548347255,-1,13,-5,-7,-76,-57,-4125
548348255,-1,3,-2,-6,-78,-56,-4090
548349255,-1,-1,-4,-8,-75,-55,-4059
548350255,-1,-5,2,-8,-48,-28,-4041
548351255,-1,-3,5,-6,-27,10,-4023
548352255,-1,0,-5,-4,-13,34,-4025
548353255,-1,-3,-2,-7,1,64,-4060
548354255,-1,6,-4,-8,16,81,-4087
548355255,-1,8,-6,-9,12,70,-4108
548356255,-1,5,-2,-5,20,71,-4107
548357255,-1,17,-9,-10,-13,16,-4143
548358255,-1,11,-3,-3,-31,-17,-4107
548359255,-1,10,-6,-1,-50,-54,-4097
548360255,-1,8,-3,-2,-54,-53,-4072
548361255,-1,3,3,-1,-55,-64,-4058
548362255,-1,4,-2,-3,-54,-36,-4051
548363255,-1,2,-1,-6,-34,-10,-4069
548364255,-1,3,-4,-12,-22,33,-4068
548365255,-1,5,-2,-7,-18,47,-4096
548366255,-1,0,0,-9,-32,66,-4108
548367255,-1,3,-2,3,-31,64,-4153
548368255,-1,13,-11,-7,-33,39,-4165
548369255,-1,11,-9,-8,-56,1,-4140
548370255,-1,8,-4,-6,-70,-5,-4119
548371255,-1,5,-2,-2,-52,-32,-4077
548372255,-1,8,0,-11,-44,-32,-4077
548373255,-1,7,-7,-5,-31,-20,-4043
548374255,-1,3,-2,-10,-8,-9,-4049
548375255,-1,1,-2,-1,-13,13,-4063
548376255,-1,6,-10,-12,-15,18,-4068
548377255,-1,2,-3,-14,-13,8,-4067
548378255,-1,1,-7,-8,-38,14,-4108
548379255,-1,-2,-3,-9,-24,9,-4109
548380255,-1,5,-1,-3,-49,1,-4103
548381255,-1,2,-8,-3,-43,13,-4102
548382255,-1,10,-5,-4,-31,7,-4072
548383255,-1,-3,-3,0,-20,20,-4072
548384255,-1,2,-1,-4,-20,19,-4075
548385255,-1,5,-3,-11,-10,26,-4074
548386255,-1,7,-7,-9,-43,7,-4080
548387255,-1,10,-5,-9,-45,-3,-4096
548388255,-1,9,0,-13,-60,-4,-4102
548389255,-1,8,-6,-13,-64,-21,-4095
548390255,-1,0,5,-5,-45,-22,-4100
548391255,-1,-3,-2,-7,-51,7,-4094
548392255,-1,8,-2,-8,-32,16,-4094
548393255,-1,0,-1,-11,-17,24,-4078
548394255,-1,3,-6,-9,6,59,-4070
548395255,-1,2,-4,-5,-1,66,-4084
548396255,-1,5,-4,-7,3,66,-4091
548397255,-1,8,-3,-11,-31,35,-4108
548398255,-1,12,-3,-9,-41,10,-4099
548399255,-1,8,-5,-5,-38,-15,-4103
548400255,-1,6,-4,-5,-58,-47,-4103
548401255,-1,3,0,-6,-46,-43,-4087
548402255,-1,-1,-2,-6,-39,-36,-4088
548403255,-1,-1,-4,-7,-47,-21,-4070
548404255,-1,-1,-6,-8,-42,6,-4080
548405255,-1,1,-5,-7,-21,32,-4095
548406255,-1,0,-9,-10,-19,33,-4105
548407255,-1,6,-2,-11,-23,37,-4094
548408255,-1,3,-5,-9,-37,40,-4115
548409255,-1,5,-3,-6,-23,8,-4105
548410255,-1,11,-3,-4,-35,4,-4088
548411255,-1,8,-7,-6,-28,8,-4087
548412255,-1,3,2,-6,-13,-7,-4092
548413255,-1,5,-5,-7,-41,-9,-4092
548414255,-1,2,-2,-4,-29,-37,-4082
548415255,-1,0,-1,-5,-34,-26,-4075
548416255,-1,0,-2,-5,-30,-7,-4082
548417255,-1,-3,3,-6,-36,-3,-4082
548418255,-1,-1,-4,-11,-24,22,-4085
548419255,-1,1,-2,-11,-4,13,-4092
548420255,-1,4,2,-8,-24,23,-4092
548421255,-1,8,-9,-10,-31,58,-4109
548422255,-1,4,-3,-4,-51,47,-4119
548423255,-1,8,-7,-8,-34,35,-4115
548424255,-1,9,-7,-4,-79,15,-4126
548425255,-1,1,0,-6,-78,-12,-4112
548426255,-1,11,-10,-1,-106,-57,-4061
548427255,-1,4,5,-6,-118,-73,-4026
548428255,-1,1,8,-9,-47,-42,-4000
548429255,-1,2,1,-11,0,5,-3958
548430255,-1,-2,6,-6,21,23,-3986
548431255,-1,3,0,-7,98,78,-3998
548432255,-1,3,2,-9,111,128,-4060
548433255,-1,7,-4,-9,120,89,-4110
548434255,-1,8,-9,-7,131,65,-4131
548435255,-1,11,-9,-3,59,33,-4178
548436255,-1,14,-13,-12,12,-23,-4195
548437255,-1,10,-18,-9,-36,-40,-4172
548438255,-1,5,-9,-3,-100,-77,-4175
548439255,-1,9,-12,-7,-120,-90,-4160
548440255,-1,5,-11,-7,-138,-40,-4120
548441255,-1,0,0,-6,-146,-33,-4125
548442255,-1,-2,-2,-12,-148,21,-4111
548443255,-1,-7,-2,-10,-147,43,-4128
548444255,-1,-6,0,-9,-133,66,-4136
548445255,-1,4,-4,-12,-89,70,-4152
548446255,-1,1,8,-8,-72,42,-4157
548447255,-1,5,4,-8,-33,33,-4154
548448255,-1,11,-1,-8,-28,10,-4146
548449255,-1,5,7,-12,1,6,-4096
548450255,-1,11,-6,-1,21,-37,-4062
548451255,-1,9,2,-5,46,-38,-4016
548452255,-1,10,-4,-5,30,-48,-3986
548453255,-1,4,-11,-5,37,-54,-3936
548454255,-1,2,-5,-9,16,-70,-3919
548455255,-1,-7,-9,-9,31,-43,-3933
548456255,-1,1,-10,-14,14,-17,-3969
548457255,-1,-4,-1,-5,13,-23,-3993
548458255,-1,2,-14,-8,15,52,-4015
548459255,-1,3,-9,-7,-2,83,-4095
548460255,-1,8,-5,-7,-20,80,-4129
548461255,-1,9,-7,-3,-51,70,-4164
548462255,-1,5,-3,-3,-80,63,-4164
548463255,-1,10,0,-1,-100,38,-4182
548464255,-1,10,1,-6,-109,0,-4190
548465255,-1,13,-1,-11,-123,-35,-4152
548466255,-1,10,-2,-9,-120,-40,-4147
548467255,-1,6,2,-4,-127,-38,-4124
548468255,-1,-6,8,-3,-62,-31,-4110
548469255,-1,0,-3,-8,-51,-6,-4120
548470255,-1,-5,1,-8,-12,32,-4093
548471255,-1,-4,0,-9,0,59,-4104
548472255,-1,5,-5,-13,37,87,-4104
548473255,-1,2,-3,-7,49,77,-4117
548474255,-1,11,-11,-7,59,65,-4115
548475255,-1,6,-7,-7,57,47,-4087
548476255,-1,7,-10,-3,38,25,-4112
548477255,-1,12,-10,-5,4,-24,-4098
548478255,-1,7,-6,-2,-10,-48,-4074
548479255,-1,6,-12,-4,-58,-90,-4091
548480255,-1,4,-10,-4,-68,-87,-4062
548481255,-1,-3,-2,-6,-88,-65,-4068
548482255,-1,2,-5,-10,-95,-55,-4068
548483255,-1,-5,-1,-8,-100,-13,-4058
548484255,-1,-6,4,-10,-96,20,-4069
548485255,-1,-1,-3,-11,-74,48,-4101
548486255,-1,3,3,-15,-40,61,-4061
548487255,-1,3,-4,-13,-28,58,-4093
548488255,-1,10,-1,-9,-10,27,-4088
548489255,-1,11,-1,-5,-5,8,-4092
548490255,-1,15,-11,0,-12,11,-4075
548491255,-1,6,0,-2,-10,-22,-4064
548492255,-1,11,-3,-6,-4,-31,-4055
548493255,-1,3,0,-4,-2,-18,-4037
548494255,-1,7,8,0,-15,-14,-4037
548495255,-1,-3,-2,-3,-5,-4,-4029
548496255,-1,-4,-5,-7,-13,17,-4036
548497255,-1,-1,-2,-5,-20,46,-4074
548498255,-1,4,-2,-16,-14,45,-4093
548499255,-1,1,-4,-5,-19,67,-4118
548500255,-1,3,-2,-7,-32,49,-4148
548501255,-1,10,-10,-8,-49,53,-4165
548502255,-1,10,-1,-6,-62,8,-4165
548503255,-1,8,-5,0,-65,8,-4143
548504255,-1,5,-10,-9,-80,8,-4124
548505255,-1,9,1,-5,-81,-20,-4131
548506255,-1,5,-3,-8,-57,-24,-4112
548507255,-1,4,-3,-5,-63,-18,-4101
548508255,-1,2,0,-7,-45,-3,-4090
548509255,-1,2,0,-9,-31,3,-4100
548510255,-1,-1,-2,-8,-24,1,-4094
548511255,-1,6,-3,-10,-13,16,-4103
548512255,-1,5,-3,-10,0,26,-4116
548513255,-1,3,-3,-11,7,5,-4100
548514255,-1,9,-10,-7,12,37,-4109
548515255,-1,5,-6,-8,-23,26,-4096
548516255,-1,8,-9,-7,-7,19,-4086
548517255,-1,11,-7,-9,-19,15,-4083
548518255,-1,0,-2,-5,-52,-10,-4076
548519255,-1,0,-8,-10,-53,-37,-4068
548520255,-1,1,-5,-7,-45,-43,-4073
548521255,-1,-4,-1,-6,-42,-44,-4062
548522255,-1,-1,-4,-12,-69,-54,-4062
548523255,-1,-2,3,-1,-47,-32,-4064
548524255,-1,-6,-1,-3,-33,-2,-4065
548525255,-1,-2,-7,-7,-36,25,-4084
548526255,-1,2,6,-6,-17,47,-4090
548527255,-1,3,-6,-7,0,74,-4093
548528255,-1,5,-2,-5,-2,69,-4102
548529255,-1,6,-1,-5,-6,38,-4108
548530255,-1,16,-8,-7,-22,33,-4120
548531255,-1,7,-1,-6,-35,0,-4103
548532255,-1,10,-8,-6,-40,-2,-4108
548533255,-1,8,-7,-7,-48,-55,-4102
548534255,-1,4,-4,-7,-52,-39,-4089
548535255,-1,6,-5,-6,-66,-16,-4089
548536255,-1,-3,-2,-7,-52,-2,-4110
548537255,-1,0,-5,-12,-57,23,-4093
548538255,-1,-2,-1,-5,-42,57,-4080
548539255,-1,-1,-4,-9,-41,52,-4092
548540255,-1,3,-2,-8,-9,39,-4103
548541255,-1,3,3,-6,-21,52,-4121
548542255,-1,2,3,-2,-22,29,-4131
548543255,-1,6,-4,-1,-4,14,-4110
548544255,-1,6,-3,-4,-16,-1,-4087
548545255,-1,5,0,-4,-13,-25,-4091
548546255,-1,7,-5,-4,-16,-42,-4085
548547255,-1,6,-1,-10,-30,-35,-4061
548548255,-1,8,-4,-6,-47,-40,-4060
548549255,-1,7,-6,-11,-30,-23,-4076
548550255,-1,2,2,-11,-37,-19,-4047
548551255,-1,2,-10,-11,-39,6,-4052
548552255,-1,2,-7,-4,-36,18,-4080
548553255,-1,-4,-2,-4,-24,27,-4072
548554255,-1,3,-8,-7,-17,35,-4069
548555255,-1,4,-2,-7,-26,45,-4100
548556255,-1,9,-8,-7,-17,40,-4113
548557255,-1,4,-6,-8,-28,0,-4099
548558255,-1,2,-2,-6,-25,6,-4112
548559255,-1,6,-7,-13,-46,-17,-4119
548560255,-1,11,-2,-7,-47,-21,-4086
548561255,-1,6,-1,-10,-48,-31,-4096
548562255,-1,3,-4,-11,-55,-20,-4086
548563255,-1,2,-2,-11,-35,-7,-4090
548564255,-1,3,-4,-6,-31,14,-4082
548565255,-1,-2,-6,-6,-41,28,-4093
548566255,-1,3,-4,-9,-31,46,-4103
548567255,-1,4,3,-5,-22,41,-4091
548568255,-1,9,-3,-7,-25,43,-4096
548569255,-1,6,-3,-4,-28,39,-4079
548570255,-1,2,-9,-6,-16,33,-4102
548571255,-1,2,-1,-4,-16,21,-4100
548572255,-1,8,-8,-6,-30,2,-4108
548573255,-1,2,-6,-3,-36,-3,-4102
548574255,-1,6,0,-3,-28,-5,-4087
548575255,-1,5,-6,-5,-23,-22,-4075
548576255,-1,-1,-2,-7,-36,-11,-4082
548577255,-1,1,-5,-7,-44,-5,-4089
548578255,-1,-1,-1,-9,-40,-4,-4088
548579255,-1,4,-4,-5,-44,-9,-4082
548580255,-1,0,-4,-12,-37,20,-4089
548581255,-1,10,-6,-10,-35,11,-4082
548582255,-1,-1,2,-7,-24,33,-4092
548583255,-1,9,-9,-7,-38,34,-4089
548584255,-1,6,-1,-13,-32,20,-4091
548585255,-1,4,-6,-7,-39,5,-4088
548586255,-1,10,-7,-4,-34,13,-4095
548587255,-1,0,-1,-5,-25,-1,-4115
548588255,-1,4,3,-4,-23,-17,-4102
548589255,-1,3,-7,-6,-35,-6,-4119
548590255,-1,3,-1,-10,-34,-16,-4087
548591255,-1,1,-5,-10,-45,0,-4074
548592255,-1,1,-3,-8,-53,-12,-4087
548593255,-1,4,-7,-10,-36,13,-4068
548594255,-1,0,-9,-8,-33,11,-4078
548595255,-1,5,-3,-7,-35,19,-4085
548596255,-1,4,-5,-9,-43,26,-4087
548597255,-1,5,-5,-4,-23,16,-4126
548598255,-1,6,-4,-8,-63,46,-4135
548599255,-1,4,-4,-3,-56,47,-4143
548600255,-1,8,0,-6,-78,0,-4119
548601255,-1,8,-5,-8,-67,-62,-4054
548602255,-1,7,-1,-8,-66,-14,-3980
548603255,-1,-1,0,-2,-71,-25,-3987
548604255,-1,1,-3,-10,21,-51,-3996
548605255,-1,1,2,-4,62,27,-3976
548606255,-1,3,4,-9,66,152,-4067
548607255,-1,15,-8,-7,86,71,-4121
548608255,-1,6,-3,-6,99,24,-4115
548609255,-1,3,-4,-7,-8,14,-4090
548610255,-1,14,-9,-8,-34,-19,-4154
548611255,-1,5,-9,-10,-6,-12,-4143
548612255,-1,5,-4,-7,-33,12,-4172
548613255,-1,11,-8,-3,-58,-19,-4168
548614255,-1,4,-6,-4,-98,-41,-4082
548615255,-1,-3,-7,-7,-135,-60,-4079
548616255,-1,-3,-1,-2,-77,9,-4100
548617255,-1,-2,-1,-9,-62,25,-4127
548618255,-1,-2,-5,-6,-59,76,-4195
548619255,-1,2,-3,-7,-50,89,-4210
548620255,-1,10,1,-7,-57,74,-4221
548621255,-1,8,0,-2,-59,-1,-4191
548622255,-1,9,1,-6,-76,-23,-4155
548623255,-1,8,-4,-3,-70,-44,-4097
548624255,-1,7,2,0,-52,-48,-4052
548625255,-1,10,1,-2,-13,-18,-4001
548626255,-1,6,-1,0,9,-11,-3990
548627255,-1,0,-3,-4,6,-26,-3970
548628255,-1,-4,-12,-5,2,-27,-3946
548629255,-1,1,-6,-16,-2,-13,-3967
548630255,-1,0,-5,-9,13,18,-3981
548631255,-1,-3,-6,-9,-5,13,-3994
548632255,-1,8,-4,-7,-3,25,-4032
548633255,-1,6,-1,-9,21,27,-4040
548634255,-1,7,-5,-11,10,34,-4061
548635255,-1,7,-3,-5,19,34,-4078
548636255,-1,4,-1,-5,33,34,-4074
548637255,-1,10,-6,-5,-5,48,-4107
548638255,-1,5,-5,-5,-41,-1,-4159
548639255,-1,3,-2,-5,-79,-13,-4162
548640255,-1,6,-10,-9,-121,-25,-4182
548641255,-1,1,-8,-8,-143,-34,-4182
548642255,-1,5,-2,-12,-146,-31,-4156
548643255,-1,-2,-2,-10,-122,-8,-4130
548644255,-1,-3,1,-7,-114,13,-4123
548645255,-1,-5,2,-5,-70,26,-4112
548646255,-1,-6,5,-7,-31,73,-4122
548647255,-1,0,0,-2,-6,76,-4112
548648255,-1,8,-2,-6,-2,79,-4125
548649255,-1,3,-5,-5,26,76,-4120
548650255,-1,11,0,-5,49,19,-4126
548651255,-1,9,1,-5,32,-29,-4105
548652255,-1,5,-8,-3,7,-59,-4095
548653255,-1,-1,-2,-7,1,-45,-4059
548654255,-1,2,0,-3,1,-53,-4048
548655255,-1,7,-9,-12,-6,-44,-4075
548656255,-1,0,-6,-9,-33,-32,-4067
548657255,-1,-5,-7,-12,-31,-19,-4048
548658255,-1,1,-5,-9,-61,-8,-4058
548659255,-1,3,-2,-7,-59,9,-4078
548660255,-1,0,-8,-8,-86,19,-4071
548661255,-1,6,-7,-16,-70,34,-4092
548662255,-1,4,-2,-15,-70,47,-4098
548663255,-1,8,0,-5,-53,30,-4117
548664255,-1,9,-1,-4,-46,11,-4104
548665255,-1,10,-5,-9,-55,6,-4106
548666255,-1,4,3,-7,-42,-18,-4097
548667255,-1,7,-3,-10,-31,-9,-4084
548668255,-1,10,-2,-9,-37,-26,-4073
548669255,-1,5,-2,-5,-25,-14,-4051
548670255,-1,1,-1,-5,-6,7,-4049
548671255,-1,2,-3,-6,-3,8,-4052
548672255,-1,0,1,-8,2,12,-4044
548673255,-1,6,-6,-7,3,34,-4062
548674255,-1,7,-6,-8,-1,49,-4060
548675255,-1,-2,-7,-7,-17,59,-4095
548676255,-1,2,-8,-6,-23,52,-4094
548677255,-1,9,-9,-5,-32,34,-4110
548678255,-1,8,-1,-3,-43,24,-4115
548679255,-1,6,-5,-3,-42,-6,-4119
548680255,-1,3,-1,-6,-62,-10,-4095
548681255,-1,5,-10,-8,-60,-26,-4105
548682255,-1,7,-3,-7,-57,-16,-4095
548683255,-1,5,2,-13,-42,-16,-4104
548684255,-1,7,2,-5,-46,2,-4103
548685255,-1,1,2,-9,-38,20,-4105
548686255,-1,-6,1,-10,-28,27,-4116
548687255,-1,4,-5,-11,-10,51,-4100
548688255,-1,7,1,-8,-14,27,-4133
548689255,-1,4,-2,-3,-24,38,-4107
548690255,-1,3,-4,-5,-24,34,-4104
548691255,-1,4,1,-9,-13,15,-4114
548692255,-1,12,-3,-6,-29,-5,-4085
548693255,-1,1,-3,-4,-38,-32,-4089
548694255,-1,5,-12,-6,-21,-27,-4099
548695255,-1,5,-6,-7,-30,-34,-4083
548696255,-1,7,-6,-7,-43,-34,-4075
548697255,-1,5,-5,-4,-27,-20,-4070
548698255,-1,4,-7,-7,-40,-4,-4078
548699255,-1,-1,0,-4,-44,7,-4067
548700255,-1,-2,-3,-8,-28,24,-4081
548701255,-1,5,2,-10,-21,37,-4082
548702255,-1,7,-5,-8,-31,30,-4067
548703255,-1,2,-7,-5,-25,21,-4090
548704255,-1,4,2,-6,-29,22,-4082
548705255,-1,7,-7,-8,-27,17,-4086
548706255,-1,5,-3,-7,-33,-5,-4081
548707255,-1,5,-2,-6,-25,-7,-4082
548708255,-1,9,-3,-4,-38,-9,-4087
548709255,-1,1,-1,-3,-35,-10,-4084
548710255,-1,1,-5,-7,-33,11,-4079
548711255,-1,3,-7,-8,-33,26,-4089
548712255,-1,3,-2,-8,-37,26,-4101
548713255,-1,7,-7,-7,-38,41,-4078
548714255,-1,4,-1,-7,-38,35,-4109
548715255,-1,6,0,-5,-33,34,-4107
548716255,-1,4,-7,-7,-52,18,-4112
548717255,-1,2,-4,-5,-58,18,-4108
548718255,-1,1,-1,-3,-55,14,-4124
548719255,-1,9,-7,-10,-45,10,-4103
548720255,-1,3,-1,-4,-47,-17,-4096
548721255,-1,3,-2,-9,-40,-12,-4087
548722255,-1,-1,1,-6,-34,-10,-4095
548723255,-1,5,0,-7,-34,2,-4076
548724255,-1,6,-11,-8,-19,-14,-4090
548725255,-1,2,-1,-11,-19,24,-4079
548726255,-1,4,-7,-8,-26,7,-4103
548727255,-1,3,-3,-6,-29,22,-4108
548728255,-1,5,-3,-9,-30,17,-4100
548729255,-1,12,-4,-7,-21,3,-4073
548730255,-1,10,-1,-6,-30,10,-4086
548731255,-1,5,3,-3,-45,-5,-4090
548732255,-1,5,-4,-3,-50,-17,-4069
548733255,-1,4,-4,-2,-40,-25,-4080
548734255,-1,2,-7,-5,-30,-4,-4079
548735255,-1,1,-7,-8,-35,-9,-4082
548736255,-1,-2,1,-8,-45,4,-4087
548737255,-1,6,-9,-13,-16,1,-4086
548738255,-1,1,-7,-10,-35,1,-4101
548739255,-1,2,-4,-13,-20,31,-4100
548740255,-1,6,-3,-9,-35,24,-4104
548741255,-1,5,2,-5,-40,28,-4106
548742255,-1,10,-7,-3,-35,9,-4104
548743255,-1,9,-5,-8,-32,15,-4102
548744255,-1,5,-3,-5,-23,8,-4090
548745255,-1,1,-2,-8,-23,9,-4083
548746255,-1,8,-3,-6,-18,12,-4075
548747255,-1,3,-1,-6,-38,12,-4084
548748255,-1,5,-9,-10,-41,1,-4072
548749255,-1,1,-2,-5,-30,1,-4072
548750255,-1,3,-4,-10,-49,6,-4093
548751255,-1,1,-7,-6,-25,19,-4091
548752255,-1,6,-3,-7,-22,15,-4080
548753255,-1,5,-6,-9,-34,20,-4103
548754255,-1,3,-1,-8,-28,28,-4089
548755255,-1,7,-3,-4,-29,18,-4083
548756255,-1,5,-2,-6,-35,7,-4086
548757255,-1,2,-4,-4,-28,-7,-4084
548758255,-1,9,-6,-9,-26,-7,-4096
548759255,-1,4,-9,-6,-46,-12,-4087
548760255,-1,1,-5,-3,-34,-18,-4075
548761255,-1,4,-10,-8,-35,-5,-4089
548762255,-1,4,-1,-8,-17,5,-4086
548763255,-1,-2,-3,-5,-25,-6,-4085
548764255,-1,6,-8,-5,-43,8,-4108
548765255,-1,4,-5,-8,-25,15,-4093
548766255,-1,5,-5,-11,-16,19,-4098
548767255,-1,5,0,-7,-24,10,-4101
548768255,-1,4,6,-4,-15,1,-4106
548769255,-1,3,-5,-7,-33,4,-4092
548770255,-1,10,-4,-11,-37,11,-4105
548771255,-1,3,-5,-7,-31,-3,-4114
548772255,-1,8,-7,-9,-34,0,-4088
548773255,-1,3,-4,-7,-29,6,-4088
548774255,-1,9,-8,-13,-36,0,-4101
548775255,-1,6,-10,-11,-28,6,-4092
548776255,-1,8,-3,-8,-30,8,-4091
548777255,-1,4,0,-7,-20,6,-4071
548778255,-1,4,-4,-10,-32,2,-4084
548779255,-1,6,-3,-7,-27,20,-4085
548780255,-1,3,-3,-5,-42,23,-4080
548781255,-1,3,-2,-10,-35,12,-4093
548782255,-1,7,-4,-8,-38,10,-4081
548783255,-1,7,-7,-9,-33,1,-4086
548784255,-1,-2,1,-12,-30,2,-4079
548785255,-1,3,-3,-8,-26,6,-4078
548786255,-1,6,-3,-9,-44,8,-4092
548787255,-1,6,-3,-5,-50,6,-4087
548788255,-1,6,-10,-10,-30,-5,-4092
548789255,-1,7,-3,-4,-35,8,-4092
548790255,-1,3,-5,-4,-44,12,-4076
548791255,-1,6,-4,-3,-37,1,-4092
548792255,-1,9,-3,-5,-32,13,-4090
548793255,-1,7,-5,-8,-43,22,-4092
548794255,-1,2,-2,-8,-32,2,-4098
548795255,-1,1,-1,-7,-29,1,-4093
548796255,-1,5,-7,-7,-46,17,-4092
548797255,-1,7,0,-8,-41,12,-4082
548798255,-1,2,-5,-5,-40,13,-4085
548799255,-1,4,-6,-9,-21,0,-4092
548800255,-1,8,2,-2,-32,-4,-4074
548801255,-1,10,-6,-5,-28,2,-4077
548802255,-1,5,-2,-5,-28,8,-4094
548803255,-1,3,-9,-8,-23,13,-4103
548804255,-1,1,-1,-6,-12,4,-4086
548805255,-1,5,3,-9,-8,9,-4100
548806255,-1,5,-8,-7,-23,-2,-4107
548807255,-1,5,-4,-10,-24,18,-4116
548808255,-1,3,-3,-8,-32,16,-4094
548809255,-1,10,-6,-14,-40,-8,-4114
548810255,-1,5,-6,-3,-46,15,-4100
548811255,-1,6,-5,-8,-43,8,-4090
548812255,-1,3,-5,-4,-33,19,-4104
548813255,-1,5,-2,-5,-38,0,-4089
548814255,-1,6,-3,-5,-38,13,-4088
548815255,-1,7,-2,-3,-22,4,-4093
548816255,-1,3,-1,-8,-29,3,-4087
548817255,-1,3,-4,-5,-32,9,-4096
548818255,-1,7,4,-5,-28,-3,-4081
548819255,-1,4,-6,-8,-20,5,-4081
548820255,-1,10,-3,-7,-14,17,-4090
548821255,-1,3,0,-8,-34,7,-4085
548822255,-1,4,0,-6,-38,6,-4070
548823255,-1,4,-6,-3,-22,2,-4090
548824255,-1,3,-4,-2,-23,6,-4090
548825255,-1,5,-6,-7,-42,10,-4092
548826255,-1,5,0,-8,-30,-2,-4090
548827255,-1,3,-6,-7,-31,3,-4090
548828255,-1,5,-8,-10,-40,1,-4085
548829255,-1,1,-3,-7,-51,11,-4100
548830255,-1,3,-4,-10,-22,18,-4096
548831255,-1,5,-8,-10,-30,14,-4100
548832255,-1,2,1,-2,-37,8,-4098
548833255,-1,8,-6,-4,-42,10,-4100
548834255,-1,3,-2,-8,-23,2,-4099
548835255,-1,2,-3,-7,-45,9,-4121
548836255,-1,3,-2,-2,-37,1,-4102
548837255,-1,1,5,-5,-34,12,-4090
548838255,-1,-2,-6,-5,-27,12,-4107
548839255,-1,3,-7,-6,-28,17,-4089
548840255,-1,-2,-4,-6,-41,-10,-4092
548841255,-1,3,-4,-5,-41,1,-4082
548842255,-1,-1,-4,-10,-38,3,-4089
548843255,-1,1,1,-4,-32,13,-4088
548844255,-1,6,-7,-8,-37,6,-4078
548845255,-1,6,2,-12,-25,1,-4075
548846255,-1,9,0,-10,-30,0,-4085
548847255,-1,7,1,-9,-28,7,-4073
548848255,-1,4,1,-9,-28,1,-4100
548849255,-1,4,-5,-8,-41,13,-4084
548850255,-1,6,-2,-6,-41,3,-4095
548851255,-1,-1,-4,-2,-33,2,-4090
548852255,-1,10,-11,-5,-29,7,-4087
548853255,-1,2,-6,-4,-39,19,-4100
548854255,-1,3,-6,-5,-9,14,-4105
548855255,-1,5,-7,-6,-26,1,-4096
548856255,-1,1,-1,-10,-45,-9,-4092
548857255,-1,-1,-8,-13,-32,9,-4104
548858255,-1,-4,-2,-7,-30,14,-4097
548859255,-1,1,-3,-8,-32,8,-4087
548860255,-1,7,-5,-8,-51,3,-4091
548861255,-1,0,-2,-5,-40,6,-4087
548862255,-1,2,-9,-8,-46,6,-4081
548863255,-1,2,-3,-9,-34,6,-4082
548864255,-1,4,-2,-8,-30,20,-4071
548865255,-1,4,-6,-6,-24,20,-4105
548866255,-1,2,-6,-8,-33,8,-4084
548867255,-1,1,-5,-9,-43,7,-4105
548868255,-1,4,-5,-10,-40,24,-4087
548869255,-1,0,-2,-4,-26,3,-4071
548870255,-1,6,-7,-11,-49,9,-4104
548871255,-1,6,-5,-6,-42,1,-4092
548872255,-1,5,0,-7,-35,11,-4082
548873255,-1,2,-5,-4,-27,1,-4089
548874255,-1,4,-4,-6,-30,9,-4093
548875255,-1,3,-8,-10,-47,-2,-4099
548876255,-1,-2,-2,-4,-36,9,-4081
548877255,-1,6,0,-5,-35,11,-4083
548878255,-1,4,-7,-3,-43,2,-4091
548879255,-1,5,-8,-5,-31,-7,-4086
548880255,-1,0,1,-5,-42,-5,-4094
548881255,-1,5,-8,-6,-19,-19,-4090
548882255,-1,1,-2,-5,-39,3,-4099
548883255,-1,7,-8,-11,-26,-1,-4088
548884255,-1,7,-2,-7,-28,8,-4081
548885255,-1,1,-3,-8,-14,6,-4081
548886255,-1,5,-7,-13,-39,12,-4083
548887255,-1,-1,0,-4,-19,2,-4091
548888255,-1,1,0,-5,-27,17,-4088
548889255,-1,11,-6,-8,-32,9,-4082
548890255,-1,5,-6,-11,-8,0,-4110
548891255,-1,4,-3,-6,-22,3,-4102
548892255,-1,6,-6,-6,-27,1,-4107
548893255,-1,5,-7,-5,-38,11,-4104
548894255,-1,1,-6,-5,-45,3,-4095
548895255,-1,2,-1,-6,-39,5,-4098
548896255,-1,3,-1,-1,-43,10,-4096
548897255,-1,3,-6,-9,-47,10,-4094
548898255,-1,7,-3,-10,-27,8,-4091
548899255,-1,3,-3,-7,-24,6,-4106
548900255,-1,11,-6,-7,-30,13,-4098
548901255,-1,1,2,-4,-37,8,-4098
548902255,-1,3,-5,-8,-42,5,-4101
548903255,-1,2,-3,-5,-36,21,-4078
548904255,-1,5,-3,-3,-21,7,-4075
548905255,-1,8,-8,-3,-16,-7,-4077
548906255,-1,4,-3,-6,-22,2,-4081
548907255,-1,3,-5,-7,-37,-10,-4085
548908255,-1,6,-3,-5,-12,4,-4073
548909255,-1,7,-4,-8,-20,-6,-4088
548910255,-1,3,-5,-3,-29,9,-4078
548911255,-1,3,-1,-6,-39,-1,-4081
548912255,-1,7,-7,-7,-47,5,-4086
548913255,-1,3,-9,-8,-27,12,-4096
548914255,-1,-5,-2,-9,-32,2,-4080
548915255,-1,5,1,-12,-41,-2,-4094
548916255,-1,5,-5,-5,-51,4,-4096
548917255,-1,4,0,-8,-18,8,-4105
548918255,-1,3,-6,-4,-26,-2,-4084
548919255,-1,7,-6,-9,-49,22,-4084
548920255,-1,4,-7,-6,-33,15,-4100
548921255,-1,6,-3,-1,-26,-4,-4093
548922255,-1,4,-4,-3,-30,29,-4110
548923255,-1,3,-2,-9,-45,-3,-4102
548924255,-1,5,-6,-11,-36,12,-4089
548925255,-1,5,2,-3,-39,0,-4106
548926255,-1,4,-7,-5,-42,12,-4103
548927255,-1,3,-3,-1,-30,6,-4111
548928255,-1,-2,0,-7,-39,3,-4097
548929255,-1,12,-4,-8,-33,1,-4086
548930255,-1,1,-2,-6,-36,11,-4085
548931255,-1,8,-5,-9,-25,4,-4095
548932255,-1,5,1,-7,-24,0,-4085
548933255,-1,0,-1,-8,-24,5,-4090
548934255,-1,-1,-9,-10,-43,-4,-4102
548935255,-1,5,-2,-5,-30,-3,-4090
548936255,-1,2,-2,-6,-25,10,-4088
548937255,-1,6,-8,-10,-24,-4,-4103
548938255,-1,3,-4,-8,-35,15,-4102
548939255,-1,1,-6,-2,-34,9,-4091
548940255,-1,0,-3,-7,-36,7,-4098
548941255,-1,3,-9,-8,-30,7,-4085
548942255,-1,8,-7,-7,-38,-11,-4092
548943255,-1,4,-4,-6,-40,5,-4079
548944255,-1,6,-2,-6,-27,11,-4085
548945255,-1,4,-3,-4,-30,8,-4086
548946255,-1,4,-4,-8,-31,5,-4085
548947255,-1,1,-9,-10,-30,-5,-4084
548948255,-1,8,-5,-3,-29,9,-4091
548949255,-1,8,-5,-3,-36,-3,-4085
548950255,-1,7,-7,-10,-21,16,-4096
548951255,-1,-1,4,-3,-35,22,-4100
548952255,-1,6,-8,-7,-22,9,-4079
548953255,-1,3,-4,-4,-27,4,-4074
548954255,-1,-3,1,-9,-33,7,-4078
548955255,-1,4,-1,-10,-14,9,-4086
548956255,-1,6,-5,-7,-24,8,-4083
548957255,-1,13,-1,-5,-24,11,-4098
548958255,-1,8,-3,-2,-33,13,-4088
548959255,-1,3,-4,-5,-41,12,-4083
548960255,-1,0,0,-3,-26,0,-4084
548961255,-1,7,-5,-7,-31,6,-4064
548962255,-1,4,1,-6,-34,17,-4101
548963255,-1,9,-2,-11,-23,1,-4089
548964255,-1,5,-9,-8,-28,-3,-4090
548965255,-1,-2,2,-4,-18,0,-4096
548966255,-1,3,-8,-9,-38,10,-4086
548967255,-1,8,-5,-4,-19,-3,-4075
548968255,-1,3,-2,0,-23,9,-4102
548969255,-1,3,-9,-8,-26,7,-4103
548970255,-1,0,-6,-7,-26,10,-4101
548971255,-1,4,-6,-10,-29,-8,-4086
548972255,-1,1,-6,-8,-23,-4,-4092
548973255,-1,3,-4,-11,-34,11,-4093
548974255,-1,2,-8,-7,-30,5,-4095
548975255,-1,3,0,-6,-31,7,-4098
548976255,-1,11,0,-7,-39,10,-4096
548977255,-1,3,-4,-9,-34,-5,-4099
548978255,-1,6,1,-3,-36,-2,-4086
548979255,-1,10,-9,-9,-47,2,-4096
548980255,-1,6,-5,-8,-38,13,-4070
548981255,-1,5,-7,-11,-27,6,-4096
548982255,-1,6,-6,-4,-34,-6,-4074
548983255,-1,4,-3,-2,-24,14,-4083
548984255,-1,-5,-5,-3,-43,11,-4091
548985255,-1,2,-3,-8,-51,-2,-4083
548986255,-1,3,-4,-9,-31,15,-4084
548987255,-1,5,-7,-12,-28,6,-4085
548988255,-1,0,-10,-8,-34,8,-4113
548989255,-1,2,-1,-9,-26,-1,-4075
548990255,-1,-1,-5,-8,-24,18,-4110
548991255,-1,6,-4,-9,-35,3,-4092
548992255,-1,3,-1,-8,-23,-5,-4088
548993255,-1,11,-6,-10,-39,3,-4097
548994255,-1,4,2,-5,-36,10,-4100
548995255,-1,4,-1,-1,-33,-1,-4090
548996255,-1,9,-9,-1,-39,15,-4086
548997255,-1,6,-1,-6,-38,13,-4094
548998255,-1,4,-4,-6,-40,-5,-4087
548999255,-1,1,0,-7,-32,11,-4091
549000255,-1,6,-7,-7,-42,4,-4088
549001255,-1,5,-5,-6,-42,4,-4091
549002255,-1,2,0,-5,-27,3,-4092
549003255,-1,6,-7,-9,-30,11,-4083
549004255,-1,12,-2,-6,-44,10,-4084
549005255,-1,2,1,-5,-27,16,-4081
549006255,-1,6,-9,-10,-27,16,-4077
549007256,-1,3,1,-7,-25,8,-4103
549008255,-1,5,-4,-10,-41,17,-4096
549009256,-1,5,-7,-7,-39,-2,-4097
549010257,-1,4,-4,-6,-27,4,-4104
549011255,-1,7,-7,-10,-29,2,-4102
549012255,-1,3,-7,-3,-30,10,-4090
549013255,-1,7,-2,-11,-30,1,-4108
549014255,-1,4,-5,-6,-43,11,-4089
549015255,-1,4,-4,-3,-34,8,-4091
549016255,-1,5,-8,-8,-29,-7,-4089
549017255,-1,5,-11,-10,-33,6,-4106
549018255,-1,3,-5,-2,-29,15,-4075
549019255,-1,8,1,-12,-38,2,-4093
549020255,-1,8,-3,-2,-25,-2,-4084
549021255,-1,0,-6,-8,-36,-12,-4078
549022255,-1,6,-1,-4,-43,7,-4077
549023255,-1,5,-3,-7,-38,5,-4088
549024255,-1,3,-2,-4,-30,18,-4082
549025255,-1,8,-4,-11,-21,-5,-4096
549026255,-1,2,-1,-1,-27,3,-4095
549027255,-1,5,-5,-8,-35,4,-4083
549028255,-1,3,0,-8,-22,7,-4097
549029255,-1,0,0,-4,-32,9,-4104
549030255,-1,9,-9,-8,-28,11,-4084
549031255,-1,4,0,-4,-38,10,-4101
549032255,-1,6,-9,-3,-30,1,-4077
549033255,-1,3,-8,-8,-29,6,-4088
549034255,-1,0,-2,-3,-38,4,-4089
549035255,-1,8,-4,-10,-43,9,-4090
549036255,-1,4,-1,-8,-26,5,-4104
549037255,-1,3,-5,-10,-24,9,-4086
549038255,-1,1,-6,-4,-40,1,-4102
549039255,-1,6,-3,-2,-46,19,-4084
549040255,-1,5,-5,-8,-26,10,-4113
549041255,-1,2,-5,-4,-40,7,-4099
549042255,-1,0,2,-8,-21,12,-4100
549043255,-1,5,-10,-6,-39,5,-4121
549044255,-1,7,-1,-10,-36,9,-4110
549045255,-1,3,-6,-8,-27,-1,-4094
549046255,-1,2,-6,-10,-25,6,-4100
549047255,-1,2,3,-7,-36,17,-4111
549048255,-1,8,-7,-8,-25,13,-4087
549049255,-1,2,-3,-8,-43,3,-4085
549050255,-1,5,-5,-8,-45,5,-4086
549051255,-1,5,-3,-8,-35,2,-4077
549052255,-1,-2,-5,-6,-25,14,-4078
549053255,-1,-2,-2,-6,-32,4,-4085
549054255,-1,7,-5,-6,-27,1,-4085
549055255,-1,6,-4,-8,-33,15,-4074
549056255,-1,8,-2,-9,-25,2,-4081
549057255,-1,6,-1,-7,-27,15,-4079
549058255,-1,2,0,-7,-12,18,-4099
549059255,-1,4,-5,-5,-44,-5,-4080
549060255,-1,4,-5,-6,-31,-5,-4083
549061255,-1,5,-3,-6,-29,1,-4096
549062255,-1,8,-6,-7,-36,14,-4098
549063255,-1,-1,-6,-7,-30,12,-4087
549064255,-1,1,-5,-3,-33,15,-4098
549065255,-1,11,-3,-7,-40,18,-4090
549066255,-1,8,-10,-10,-29,13,-4099
549067255,-1,-1,-5,-3,-36,9,-4097
549068255,-1,6,-2,-5,-19,-2,-4076
549069255,-1,3,-3,-4,-21,17,-4079
549070255,-1,4,-8,-7,-27,7,-4090
549071255,-1,4,-5,-8,-20,9,-4096
549072255,-1,4,-5,-6,-26,13,-4077
549073255,-1,0,2,-5,-27,2,-4089
549074255,-1,3,-5,-8,-42,10,-4081
549075255,-1,6,-10,-7,-42,25,-4099
549076255,-1,5,-2,-4,-21,1,-4085
549077255,-1,8,-7,-5,-22,0,-4089
549078255,-1,2,1,-8,-39,-6,-4069
549079255,-1,3,-1,-5,-38,8,-4082
549080255,-1,3,0,-3,-40,7,-4096
549081255,-1,2,-6,-6,-34,15,-4101
549082255,-1,5,-6,-6,-46,-2,-4099
549083255,-1,4,-3,-11,-37,2,-4100
549084255,-1,3,1,-11,-30,-1,-4085
549085255,-1,5,-6,-9,-32,13,-4096
549086255,-1,6,-7,-7,-6,0,-4086
549087255,-1,8,-6,-9,-35,11,-4093
549088255,-1,7,0,-5,-40,8,-4099
549089255,-1,6,-7,-11,-38,11,-4088
549090255,-1,2,-4,-8,-44,4,-4092
549091255,-1,11,-5,-8,-18,3,-4084
549092255,-1,0,0,-7,-17,-8,-4090
549093255,-1,1,-2,-9,-44,17,-4095
549094255,-1,3,-7,-10,-38,3,-4112
549095255,-1,10,-1,-6,-34,16,-4092
549096255,-1,6,-3,-6,-28,12,-4102
549097255,-1,3,3,-6,-39,6,-4101
549098255,-1,4,0,-9,-37,15,-4097
549099255,-1,11,-7,-12,-34,-1,-4094
549100255,-1,3,-7,-7,-32,12,-4093
549101255,-1,4,-5,-5,-25,1,-4108
549102255,-1,7,-7,-5,-47,9,-4096
549103255,-1,2,-2,-5,-43,4,-4073
549104255,-1,6,-4,-9,-41,-3,-4086
549105255,-1,3,-7,-11,-30,4,-4072
549106255,-1,2,1,-3,-24,18,-4087
549107255,-1,12,-9,-7,-34,13,-4088
549108255,-1,2,0,-7,-25,15,-4080
549109255,-1,3,-4,-8,-27,0,-4068
549110255,-1,4,-5,-7,-18,3,-4095
549111255,-1,3,-8,-6,-21,2,-4087
549112255,-1,9,-4,-7,-30,17,-4087
549113255,-1,1,-7,-5,-44,5,-4110
549114255,-1,1,-6,-9,-23,5,-4083
549115255,-1,2,-2,-1,-27,8,-4099
549116255,-1,5,-1,-3,-41,-7,-4097
549117255,-1,5,-6,-3,-28,-6,-4077
549118255,-1,6,-10,-3,-44,4,-4080
549119255,-1,4,-3,-8,-40,12,-4081
549120255,-1,5,-2,-12,-36,1,-4081
549121255,-1,7,-6,-6,-42,-1,-4082
549122255,-1,0,-4,-7,-50,9,-4082
549123255,-1,6,-12,-9,-37,8,-4086
549124255,-1,-1,3,-5,-22,7,-4092
549125255,-1,5,1,-4,-27,20,-4066
549126255,-1,8,-5,-6,-39,4,-4076
549127255,-1,0,7,-4,-13,-1,-4078
549128255,-1,6,-10,-7,-26,24,-4081
549129255,-1,3,-2,-8,-20,19,-4093
549130255,-1,2,-7,-8,-34,7,-4092
549131255,-1,9,-9,-8,-27,12,-4097
549132255,-1,4,-2,-8,-35,0,-4086
549133255,-1,3,-4,-8,-39,8,-4072
549134255,-1,4,-3,-11,-34,-2,-4088
549135255,-1,5,-2,-8,-27,-2,-4090
549136255,-1,6,1,-4,-33,-2,-4089
549137255,-1,9,-6,-5,-41,13,-4093
549138255,-1,5,-1,-4,-27,14,-4098
549139255,-1,16,-9,-11,-26,8,-4087
549140255,-1,5,-1,-7,-43,2,-4096
549141255,-1,10,-5,-10,-35,-9,-4109
549142255,-1,10,-5,-4,-42,5,-4114
549143255,-1,8,-2,-5,-27,1,-4095
549144255,-1,10,-1,-8,-28,10,-4102
549145255,-1,2,-4,-7,-28,7,-4099
549146255,-1,8,-9,-6,-24,1,-4081
549147255,-1,7,-5,-8,-30,13,-4086
549148255,-1,2,-1,-4,-30,8,-4089
549149255,-1,7,-7,-7,-26,17,-4100
549150255,-1,2,-8,-8,-11,4,-4101
549151255,-1,5,-1,-8,-24,4,-4097
549152255,-1,3,-5,-8,-19,6,-4095
549153255,-1,4,-2,-13,-27,10,-4091
549154255,-1,6,-1,-7,-25,2,-4109
549155255,-1,2,-2,0,-41,-7,-4097
549156255,-1,1,-3,-7,-27,2,-4086
549157255,-1,1,-3,-2,-23,2,-4073
549158255,-1,6,-2,-8,-18,-12,-4092
549159255,-1,1,4,-2,-24,1,-4108
549160255,-1,10,-3,-8,-35,10,-4104
549161255,-1,6,-5,-7,-28,10,-4097
549162255,-1,1,-2,-10,-27,5,-4100
549163255,-1,10,-6,-7,-43,12,-4099
549164255,-1,3,-3,-14,-39,18,-4097
549165255,-1,2,-3,-3,-34,10,-4108
549166255,-1,4,-6,-9,-45,4,-4100
549167255,-1,0,-6,-5,-20,9,-4090
549168255,-1,2,-8,-6,-40,0,-4084
549169255,-1,4,-3,-2,-32,15,-4087
549170255,-1,3,-1,-5,-25,5,-4064
549171255,-1,5,-12,-1,-26,18,-4094
549172255,-1,2,-3,-5,-27,26,-4074
549173255,-1,9,-5,-7,-21,1,-4090
549174255,-1,4,-3,-7,-34,12,-4097
549175255,-1,3,-1,-9,-42,6,-4088
549176255,-1,8,-10,-8,-30,8,-4086
549177255,-1,4,-1,-8,-27,21,-4095
549178255,-1,0,-1,-8,-45,4,-4086
549179255,-1,3,-1,-9,-26,-3,-4103
549180255,-1,2,2,-8,-33,9,-4099
549181255,-1,3,-5,-11,-26,6,-4094
549182255,-1,5,-5,-10,-35,4,-4073
549183255,-1,3,-2,-1,-19,10,-4090
549184255,-1,7,-6,-6,-26,13,-4089
549185255,-1,1,-1,0,-35,16,-4101
549186255,-1,6,-5,-7,-23,8,-4111
549187255,-1,6,-2,-8,-32,6,-4094
549188255,-1,5,-3,-15,-34,9,-4107
549189255,-1,1,-2,-5,-32,-5,-4101
549190255,-1,6,-7,-11,-29,6,-4108
549191255,-1,5,-3,-7,-27,13,-4090
549192255,-1,0,-9,-7,-30,10,-4093
549193255,-1,2,-3,-9,-27,12,-4088
549194255,-1,7,-5,-9,-33,5,-4095
549195255,-1,6,-4,-7,-44,11,-4107
549196255,-1,1,-3,-5,-21,13,-4103
549197255,-1,5,-2,-6,-26,2,-4093
549198255,-1,7,1,-11,-47,5,-4088
549199255,-1,2,-5,-11,-28,9,-4097
549200255,-1,2,-7,-5,-35,6,-4083
549201255,-1,1,-5,-8,-40,4,-4095
549202255,-1,2,-5,-6,-39,-1,-4083
549203255,-1,0,-5,-5,-38,16,-4092
549204255,-1,-3,-4,-8,-40,11,-4078
549205255,-1,1,-6,-8,-33,10,-4094
549206255,-1,1,-5,-6,-36,11,-4089
549207255,-1,2,-5,-8,-35,22,-4074
549208255,-1,5,-8,-12,-55,20,-4092
549209255,-1,3,0,-4,-24,0,-4095
549210255,-1,4,-6,-8,-23,3,-4087
549211255,-1,3,-4,-7,-33,5,-4086
549212255,-1,4,1,-6,-28,6,-4095
549213255,-1,14,-7,-8,-39,22,-4087
549214255,-1,5,-5,-10,-30,7,-4096
549215255,-1,0,-6,-4,-36,5,-4080
549216255,-1,5,-1,-6,-20,8,-4082
549217255,-1,6,1,0,-25,1,-4086
549218255,-1,4,-4,-7,-42,13,-4084
549219255,-1,4,-5,-5,-33,18,-4076
549220255,-1,2,0,-7,-31,6,-4088
549221255,-1,-2,-11,-6,-36,11,-4110
549222255,-1,7,-5,-8,-46,19,-4083
549223255,-1,6,1,-6,-35,12,-4094
549224255,-1,7,-2,-7,-18,12,-4097
549225255,-1,3,0,-5,-29,1,-4093
549226255,-1,1,-3,-6,-27,8,-4101
549227255,-1,1,-5,-2,-15,0,-4073
549228255,-1,4,-2,-11,-19,0,-4086
549229255,-1,3,-3,-4,-42,3,-4074
549230255,-1,5,-3,-8,-33,1,-4100
549231255,-1,3,-3,-7,-37,12,-4091
549232255,-1,10,-6,-4,-40,7,-4095
549233255,-1,4,-3,-4,-33,11,-4082
549234255,-1,1,3,-6,-44,12,-4095
549235255,-1,-2,-1,-8,-21,16,-4084
549236255,-1,-2,-9,-6,-31,-4,-4085
549237255,-1,5,-12,-9,-51,4,-4095
549238255,-1,8,-3,-7,-35,1,-4097
549239255,-1,5,-1,-6,-49,6,-4077
549240255,-1,4,-4,-8,-30,12,-4078
549241255,-1,4,1,-8,-21,-3,-4090
549242255,-1,6,-6,-11,-31,-5,-4084
549243255,-1,1,-3,-5,-22,7,-4101
549244255,-1,4,0,-7,-29,6,-4097
549245255,-1,4,-6,-13,-45,10,-4088
549246255,-1,10,2,-10,-10,6,-4093
549247255,-1,5,-3,-3,-49,3,-4096
549248255,-1,13,-6,-6,-32,6,-4084
549249255,-1,4,-5,-10,-29,9,-4100
549250255,-1,6,-5,-8,-38,5,-4096
549251255,-1,3,-4,-5,-41,8,-4087
549252255,-1,-1,-2,-4,-38,8,-4086
549253255,-1,9,-3,-7,-35,11,-4091
549254255,-1,4,-3,-9,-37,-4,-4069
549255255,-1,5,-2,-7,-47,11,-4091
549256255,-1,9,-1,-7,-39,14,-4082
549257255,-1,3,1,-8,-21,3,-4089
549258255,-1,4,-4,-11,-31,7,-4085
549259255,-1,6,-4,-10,-37,19,-4085
549260255,-1,3,-1,-7,-27,9,-4105
549261255,-1,6,-3,-6,-30,19,-4093
549262255,-1,5,-1,-12,-28,9,-4087
549263255,-1,4,-2,-9,-29,12,-4100
549264255,-1,6,-5,-7,-36,16,-4104
549265255,-1,1,-2,-3,-37,-8,-4090
549266255,-1,-1,-5,-6,-29,11,-4105
549267255,-1,6,-8,-5,-32,20,-4090
549268255,-1,4,-8,-9,-31,5,-4091
549269255,-1,7,-9,-5,-40,6,-4101
549270255,-1,5,0,-7,-49,16,-4101
549271255,-1,4,0,-7,-48,8,-4096
549272255,-1,7,-10,-3,-53,13,-4109
549273255,-1,2,2,-3,-39,-1,-4093
549274255,-1,4,-2,-3,-46,7,-4076
549275255,-1,1,-2,-5,-40,26,-4061
549276255,-1,-3,3,-8,-13,2,-4070
549277255,-1,2,-3,-6,-20,24,-4066
549278255,-1,3,-4,-3,-3,8,-4075
549279255,-1,8,-6,-5,-7,9,-4087
549280255,-1,7,-3,-6,0,-1,-4081
549281255,-1,5,-6,-8,-30,23,-4096
549282255,-1,4,-9,-8,-18,5,-4096
549283255,-1,10,-4,-6,-46,-12,-4114
549284255,-1,5,-1,-2,-32,-12,-4122
549285255,-1,5,-7,-4,-37,-19,-4108
549286255,-1,4,3,-7,-47,-3,-4096
549287255,-1,5,-4,-12,-51,7,-4107
549288255,-1,4,-5,-6,-56,20,-4088
549289255,-1,5,4,-7,-47,8,-4098
549290255,-1,4,-3,-2,-53,19,-4101
549291255,-1,10,-3,-6,-58,11,-4087
549292255,-1,3,-4,-8,-44,1,-4100
549293255,-1,6,1,-2,-22,7,-4101
549294255,-1,0,0,-5,-36,12,-4090
549295255,-1,8,-1,-1,-18,3,-4092
549296255,-1,10,0,-4,-18,4,-4088
549297255,-1,2,-5,-1,-13,-4,-4066
549298255,-1,4,-3,-3,-9,6,-4078
549299255,-1,1,-7,-6,-25,-9,-4072
549300255,-1,1,-2,-8,-9,7,-4067
549301255,-1,2,-2,-6,-26,6,-4069
549302255,-1,5,-5,-12,-38,1,-4100
549303255,-1,-1,-4,-6,-41,13,-4100
549304255,-1,2,-3,-11,-47,12,-4092
549305255,-1,8,-3,-8,-40,7,-4088
549306255,-1,6,-10,-12,-51,-2,-4119
549307255,-1,9,-5,-12,-54,4,-4114
549308255,-1,0,3,-2,-49,9,-4111
549309255,-1,5,-8,-12,-38,22,-4117
549310255,-1,4,-3,-4,-40,6,-4113
549311255,-1,-2,-2,-7,-36,12,-4105
